"date","time","group","subject","build","blocknum","trialnum","blockcode","trialcode","pretrialpause","posttrialpause","windowcenter","trialduration","trialtimeout","blocktimeout","response","correct","latency","inwindow","stimulusnumber1","stimulusitem1","stimulusvpos1","stimulushpos1","stimulusonset1","stimulusnumber2","stimulusitem2","stimulusvpos2","stimulushpos2","stimulusonset2"
"120219","15:24:43","5","5","4.0.10.0","1","1","Begin1","groups","0","0","0","0","0","0","next","0","1550","0","1","groups.htm","50pct","50pct","673","1","Press here to continue","85pct","50pct","673"
"120219","15:24:43","5","5","4.0.10.0","2","1","EC_Training_N_Competent_L_Warm_Block_1","EC_Training_Trial_N_Competent","1000","0","0","3000","0","0","0","0","1500","0","4","Zallunif","47pct","40pct","499","4","Determined","47pct","62pct","499"
"120219","15:24:43","5","5","4.0.10.0","2","2","EC_Training_N_Competent_L_Warm_Block_1","EC_Training_Trial_L_Warm","1000","0","0","3000","0","0","0","0","1500","0","2","Neenolup","47pct","40pct","499","2","Helpful","47pct","62pct","499"
"120219","15:24:43","5","5","4.0.10.0","2","3","EC_Training_N_Competent_L_Warm_Block_1","EC_Training_Trial_N_Competent","1000","0","0","3000","0","0","0","0","1500","0","1","Cellanif","47pct","40pct","499","3","Confident","47pct","62pct","499"
"120219","15:24:43","5","5","4.0.10.0","2","4","EC_Training_N_Competent_L_Warm_Block_1","EC_Training_Trial_L_Warm","1000","0","0","3000","0","0","0","0","1500","0","1","Maasolup","47pct","40pct","499","1","Friendly","47pct","62pct","499"
"120219","15:24:43","5","5","4.0.10.0","2","5","EC_Training_N_Competent_L_Warm_Block_1","EC_Training_Trial_N_Competent","1000","0","0","3000","0","0","0","0","1500","0","3","Lebbunif","47pct","40pct","499","1","Smart","47pct","62pct","499"
"120219","15:24:43","5","5","4.0.10.0","2","6","EC_Training_N_Competent_L_Warm_Block_1","EC_Training_Trial_L_Warm","1000","0","0","3000","0","0","0","0","1500","0","3","Omeelup","47pct","40pct","499","4","Good-natured","47pct","62pct","499"
"120219","15:24:43","5","5","4.0.10.0","2","7","EC_Training_N_Competent_L_Warm_Block_1","EC_Training_Trial_N_Competent","1000","0","0","3000","0","0","0","0","1500","0","2","Eskannif","47pct","40pct","499","2","Scientific","47pct","62pct","499"
"120219","15:24:43","5","5","4.0.10.0","2","8","EC_Training_N_Competent_L_Warm_Block_1","EC_Training_Trial_L_Warm","1000","0","0","3000","0","0","0","0","1500","0","4","Wenaalup","47pct","40pct","499","3","Kind","47pct","62pct","499"
"120219","15:24:43","5","5","4.0.10.0","2","9","EC_Training_N_Competent_L_Warm_Block_1","EC_Training_Trial_N_Competent","1000","0","0","3000","0","0","0","0","1500","0","4","Zallunif","47pct","40pct","499","4","Determined","47pct","62pct","499"
"120219","15:24:43","5","5","4.0.10.0","2","10","EC_Training_N_Competent_L_Warm_Block_1","EC_Training_Trial_L_Warm","1000","0","0","3000","0","0","0","0","1500","0","1","Maasolup","47pct","40pct","499","2","Helpful","47pct","62pct","499"
"120219","15:24:43","5","5","4.0.10.0","2","11","EC_Training_N_Competent_L_Warm_Block_1","EC_Training_Trial_N_Competent","1000","0","0","3000","0","0","0","0","1500","0","3","Lebbunif","47pct","40pct","499","2","Scientific","47pct","62pct","499"
"120219","15:24:43","5","5","4.0.10.0","2","12","EC_Training_N_Competent_L_Warm_Block_1","EC_Training_Trial_L_Warm","1000","0","0","3000","0","0","0","0","1500","0","3","Omeelup","47pct","40pct","499","4","Good-natured","47pct","62pct","499"
"120219","15:24:43","5","5","4.0.10.0","2","13","EC_Training_N_Competent_L_Warm_Block_1","EC_Training_Trial_N_Competent","1000","0","0","3000","0","0","0","0","1500","0","1","Cellanif","47pct","40pct","499","1","Smart","47pct","62pct","499"
"120219","15:24:43","5","5","4.0.10.0","2","14","EC_Training_N_Competent_L_Warm_Block_1","EC_Training_Trial_L_Warm","1000","0","0","3000","0","0","0","0","1500","0","2","Neenolup","47pct","40pct","499","1","Friendly","47pct","62pct","499"
"120219","15:24:43","5","5","4.0.10.0","2","15","EC_Training_N_Competent_L_Warm_Block_1","EC_Training_Trial_N_Competent","1000","0","0","3000","0","0","0","0","1500","0","2","Eskannif","47pct","40pct","499","3","Confident","47pct","62pct","499"
"120219","15:24:43","5","5","4.0.10.0","2","16","EC_Training_N_Competent_L_Warm_Block_1","EC_Training_Trial_L_Warm","1000","0","0","3000","0","0","0","0","1500","0","4","Wenaalup","47pct","40pct","499","3","Kind","47pct","62pct","499"
"120219","15:24:43","5","5","4.0.10.0","2","17","EC_Training_N_Competent_L_Warm_Block_1","EC_Training_Trial_N_Competent","1000","0","0","3000","0","0","0","0","1500","0","4","Zallunif","47pct","40pct","499","4","Determined","47pct","62pct","499"
"120219","15:24:43","5","5","4.0.10.0","2","18","EC_Training_N_Competent_L_Warm_Block_1","EC_Training_Trial_L_Warm","1000","0","0","3000","0","0","0","0","1500","0","2","Neenolup","47pct","40pct","499","4","Good-natured","47pct","62pct","499"
"120219","15:24:43","5","5","4.0.10.0","2","19","EC_Training_N_Competent_L_Warm_Block_1","EC_Training_Trial_N_Competent","1000","0","0","3000","0","0","0","0","1500","0","1","Cellanif","47pct","40pct","499","2","Scientific","47pct","62pct","499"
"120219","15:24:43","5","5","4.0.10.0","2","20","EC_Training_N_Competent_L_Warm_Block_1","EC_Training_Trial_L_Warm","1000","0","0","3000","0","0","0","0","1500","0","4","Wenaalup","47pct","40pct","499","2","Helpful","47pct","62pct","499"
"120219","15:24:43","5","5","4.0.10.0","3","1","EC_Training_N_Competent_L_Warm_Block_2","EC_Training_Trial_N_Competent","1000","0","0","3000","0","0","0","0","1500","0","3","Lebbunif","47pct","40pct","499","1","Smart","47pct","62pct","499"
"120219","15:24:43","5","5","4.0.10.0","3","2","EC_Training_N_Competent_L_Warm_Block_2","EC_Training_Trial_L_Warm","1000","0","0","3000","0","0","0","0","1500","0","3","Omeelup","47pct","40pct","499","1","Friendly","47pct","62pct","499"
"120219","15:24:43","5","5","4.0.10.0","3","3","EC_Training_N_Competent_L_Warm_Block_2","EC_Training_Trial_N_Competent","1000","0","0","3000","0","0","0","0","1500","0","2","Eskannif","47pct","40pct","499","3","Confident","47pct","62pct","499"
"120219","15:24:43","5","5","4.0.10.0","3","4","EC_Training_N_Competent_L_Warm_Block_2","EC_Training_Trial_L_Warm","1000","0","0","3000","0","0","0","0","1500","0","1","Maasolup","47pct","40pct","499","3","Kind","47pct","62pct","499"
"120219","15:24:43","5","5","4.0.10.0","3","5","EC_Training_N_Competent_L_Warm_Block_2","EC_Training_Trial_N_Competent","1000","0","0","3000","0","0","0","0","1500","0","1","Cellanif","47pct","40pct","499","3","Confident","47pct","62pct","499"
"120219","15:24:43","5","5","4.0.10.0","3","6","EC_Training_N_Competent_L_Warm_Block_2","EC_Training_Trial_L_Warm","1000","0","0","3000","0","0","0","0","1500","0","1","Maasolup","47pct","40pct","499","1","Friendly","47pct","62pct","499"
"120219","15:24:43","5","5","4.0.10.0","3","7","EC_Training_N_Competent_L_Warm_Block_2","EC_Training_Trial_N_Competent","1000","0","0","3000","0","0","0","0","1500","0","3","Lebbunif","47pct","40pct","499","4","Determined","47pct","62pct","499"
"120219","15:24:43","5","5","4.0.10.0","3","8","EC_Training_N_Competent_L_Warm_Block_2","EC_Training_Trial_L_Warm","1000","0","0","3000","0","0","0","0","1500","0","2","Neenolup","47pct","40pct","499","2","Helpful","47pct","62pct","499"
"120219","15:24:43","5","5","4.0.10.0","3","9","EC_Training_N_Competent_L_Warm_Block_2","EC_Training_Trial_N_Competent","1000","0","0","3000","0","0","0","0","1500","0","4","Zallunif","47pct","40pct","499","2","Scientific","47pct","62pct","499"
"120219","15:24:43","5","5","4.0.10.0","3","10","EC_Training_N_Competent_L_Warm_Block_2","EC_Training_Trial_L_Warm","1000","0","0","3000","0","0","0","0","1500","0","3","Omeelup","47pct","40pct","499","3","Kind","47pct","62pct","499"
"120219","15:24:43","5","5","4.0.10.0","3","11","EC_Training_N_Competent_L_Warm_Block_2","EC_Training_Trial_N_Competent","1000","0","0","3000","0","0","0","0","1500","0","2","Eskannif","47pct","40pct","499","1","Smart","47pct","62pct","499"
"120219","15:24:43","5","5","4.0.10.0","3","12","EC_Training_N_Competent_L_Warm_Block_2","EC_Training_Trial_L_Warm","1000","0","0","3000","0","0","0","0","1500","0","4","Wenaalup","47pct","40pct","499","4","Good-natured","47pct","62pct","499"
"120219","15:24:43","5","5","4.0.10.0","3","13","EC_Training_N_Competent_L_Warm_Block_2","EC_Training_Trial_N_Competent","1000","0","0","3000","0","0","0","0","1500","0","1","Cellanif","47pct","40pct","499","4","Determined","47pct","62pct","499"
"120219","15:24:43","5","5","4.0.10.0","3","14","EC_Training_N_Competent_L_Warm_Block_2","EC_Training_Trial_L_Warm","1000","0","0","3000","0","0","0","0","1500","0","2","Neenolup","47pct","40pct","499","4","Good-natured","47pct","62pct","499"
"120219","15:24:43","5","5","4.0.10.0","3","15","EC_Training_N_Competent_L_Warm_Block_2","EC_Training_Trial_N_Competent","1000","0","0","3000","0","0","0","0","1500","0","2","Eskannif","47pct","40pct","499","2","Scientific","47pct","62pct","499"
"120219","15:24:43","5","5","4.0.10.0","3","16","EC_Training_N_Competent_L_Warm_Block_2","EC_Training_Trial_L_Warm","1000","0","0","3000","0","0","0","0","1500","0","3","Omeelup","47pct","40pct","499","1","Friendly","47pct","62pct","499"
"120219","15:24:43","5","5","4.0.10.0","3","17","EC_Training_N_Competent_L_Warm_Block_2","EC_Training_Trial_N_Competent","1000","0","0","3000","0","0","0","0","1500","0","4","Zallunif","47pct","40pct","499","1","Smart","47pct","62pct","499"
"120219","15:24:43","5","5","4.0.10.0","3","18","EC_Training_N_Competent_L_Warm_Block_2","EC_Training_Trial_L_Warm","1000","0","0","3000","0","0","0","0","1500","0","4","Wenaalup","47pct","40pct","499","2","Helpful","47pct","62pct","499"
"120219","15:24:43","5","5","4.0.10.0","3","19","EC_Training_N_Competent_L_Warm_Block_2","EC_Training_Trial_N_Competent","1000","0","0","3000","0","0","0","0","1500","0","3","Lebbunif","47pct","40pct","499","3","Confident","47pct","62pct","499"
"120219","15:24:43","5","5","4.0.10.0","3","20","EC_Training_N_Competent_L_Warm_Block_2","EC_Training_Trial_L_Warm","1000","0","0","3000","0","0","0","0","1500","0","1","Maasolup","47pct","40pct","499","3","Kind","47pct","62pct","499"
"120219","15:24:43","5","5","4.0.10.0","4","1","preiat","preiat","0","0","0","0","0","0","next","0","5342","0","1","instIATster.htm","50pct","50pct","783","1","Press here to continue","85pct","50pct","783"
"120219","15:26:38","7","7","4.0.10.0","1","1","Begin1","groups","0","0","0","0","0","0","next","0","15931","0","1","groups.htm","50pct","50pct","765","1","Press here to continue","85pct","50pct","765"
"120219","15:26:38","7","7","4.0.10.0","2","1","EC_Training_N_Competent_L_Warm_Block_1","EC_Training_Trial_N_Competent","1000","0","0","3000","0","0","0","0","1500","0","1","Cellanif","47pct","40pct","499","2","Scientific","47pct","62pct","499"
"120219","15:26:38","7","7","4.0.10.0","2","2","EC_Training_N_Competent_L_Warm_Block_1","EC_Training_Trial_L_Warm","1000","0","0","3000","0","0","0","0","1500","0","3","Omeelup","47pct","40pct","499","4","Good-natured","47pct","62pct","499"
"120219","15:26:38","7","7","4.0.10.0","2","3","EC_Training_N_Competent_L_Warm_Block_1","EC_Training_Trial_N_Competent","1000","0","0","3000","0","0","0","0","1500","0","3","Lebbunif","47pct","40pct","499","1","Smart","47pct","62pct","499"
"120219","15:26:38","7","7","4.0.10.0","2","4","EC_Training_N_Competent_L_Warm_Block_1","EC_Training_Trial_L_Warm","1000","0","0","3000","0","0","0","0","1500","0","1","Maasolup","47pct","40pct","499","2","Helpful","47pct","62pct","499"
"120219","15:26:38","7","7","4.0.10.0","2","5","EC_Training_N_Competent_L_Warm_Block_1","EC_Training_Trial_N_Competent","1000","0","0","3000","0","0","0","0","1500","0","4","Zallunif","47pct","40pct","499","3","Confident","47pct","62pct","499"
"120219","15:26:38","7","7","4.0.10.0","2","6","EC_Training_N_Competent_L_Warm_Block_1","EC_Training_Trial_L_Warm","1000","0","0","3000","0","0","0","0","1500","0","2","Neenolup","47pct","40pct","499","3","Kind","47pct","62pct","499"
"120219","15:26:38","7","7","4.0.10.0","2","7","EC_Training_N_Competent_L_Warm_Block_1","EC_Training_Trial_N_Competent","1000","0","0","3000","0","0","0","0","1500","0","2","Eskannif","47pct","40pct","499","4","Determined","47pct","62pct","499"
"120219","15:26:38","7","7","4.0.10.0","2","8","EC_Training_N_Competent_L_Warm_Block_1","EC_Training_Trial_L_Warm","1000","0","0","3000","0","0","0","0","1500","0","4","Wenaalup","47pct","40pct","499","1","Friendly","47pct","62pct","499"
"120219","15:26:38","7","7","4.0.10.0","2","9","EC_Training_N_Competent_L_Warm_Block_1","EC_Training_Trial_N_Competent","1000","0","0","3000","0","0","0","0","1500","0","2","Eskannif","47pct","40pct","499","2","Scientific","47pct","62pct","499"
"120219","15:26:38","7","7","4.0.10.0","2","10","EC_Training_N_Competent_L_Warm_Block_1","EC_Training_Trial_L_Warm","1000","0","0","3000","0","0","0","0","1500","0","1","Maasolup","47pct","40pct","499","2","Helpful","47pct","62pct","499"
"120219","15:26:38","7","7","4.0.10.0","2","11","EC_Training_N_Competent_L_Warm_Block_1","EC_Training_Trial_N_Competent","1000","0","0","3000","0","0","0","0","1500","0","3","Lebbunif","47pct","40pct","499","4","Determined","47pct","62pct","499"
"120219","15:26:38","7","7","4.0.10.0","2","12","EC_Training_N_Competent_L_Warm_Block_1","EC_Training_Trial_L_Warm","1000","0","0","3000","0","0","0","0","1500","0","3","Omeelup","47pct","40pct","499","3","Kind","47pct","62pct","499"
"120219","15:26:38","7","7","4.0.10.0","2","13","EC_Training_N_Competent_L_Warm_Block_1","EC_Training_Trial_N_Competent","1000","0","0","3000","0","0","0","0","1500","0","1","Cellanif","47pct","40pct","499","1","Smart","47pct","62pct","499"
"120219","15:26:38","7","7","4.0.10.0","2","14","EC_Training_N_Competent_L_Warm_Block_1","EC_Training_Trial_L_Warm","1000","0","0","3000","0","0","0","0","1500","0","4","Wenaalup","47pct","40pct","499","1","Friendly","47pct","62pct","499"
"120219","15:26:38","7","7","4.0.10.0","2","15","EC_Training_N_Competent_L_Warm_Block_1","EC_Training_Trial_N_Competent","1000","0","0","3000","0","0","0","0","1500","0","4","Zallunif","47pct","40pct","499","3","Confident","47pct","62pct","499"
"120219","15:26:38","7","7","4.0.10.0","2","16","EC_Training_N_Competent_L_Warm_Block_1","EC_Training_Trial_L_Warm","1000","0","0","3000","0","0","0","0","1500","0","2","Neenolup","47pct","40pct","499","4","Good-natured","47pct","62pct","499"
"120219","15:26:38","7","7","4.0.10.0","2","17","EC_Training_N_Competent_L_Warm_Block_1","EC_Training_Trial_N_Competent","1000","0","0","3000","0","0","0","0","1500","0","1","Cellanif","47pct","40pct","499","1","Smart","47pct","62pct","499"
"120219","15:26:38","7","7","4.0.10.0","2","18","EC_Training_N_Competent_L_Warm_Block_1","EC_Training_Trial_L_Warm","1000","0","0","3000","0","0","0","0","1500","0","2","Neenolup","47pct","40pct","499","4","Good-natured","47pct","62pct","499"
"120219","15:26:38","7","7","4.0.10.0","2","19","EC_Training_N_Competent_L_Warm_Block_1","EC_Training_Trial_N_Competent","1000","0","0","3000","0","0","0","0","1500","0","4","Zallunif","47pct","40pct","499","4","Determined","47pct","62pct","499"
"120219","15:26:38","7","7","4.0.10.0","2","20","EC_Training_N_Competent_L_Warm_Block_1","EC_Training_Trial_L_Warm","1000","0","0","3000","0","0","0","0","1500","0","1","Maasolup","47pct","40pct","499","1","Friendly","47pct","62pct","499"
"120219","15:26:38","7","7","4.0.10.0","3","1","EC_Training_N_Competent_L_Warm_Block_2","EC_Training_Trial_L_Warm","1000","0","0","3000","0","0","0","0","1500","0","4","Wenaalup","47pct","40pct","499","2","Helpful","47pct","62pct","499"
"120219","15:26:38","7","7","4.0.10.0","3","2","EC_Training_N_Competent_L_Warm_Block_2","EC_Training_Trial_N_Competent","1000","0","0","3000","0","0","0","0","1500","0","3","Lebbunif","47pct","40pct","499","3","Confident","47pct","62pct","499"
"120219","15:26:38","7","7","4.0.10.0","3","3","EC_Training_N_Competent_L_Warm_Block_2","EC_Training_Trial_L_Warm","1000","0","0","3000","0","0","0","0","1500","0","3","Omeelup","47pct","40pct","499","3","Kind","47pct","62pct","499"
"120219","15:26:38","7","7","4.0.10.0","3","4","EC_Training_N_Competent_L_Warm_Block_2","EC_Training_Trial_N_Competent","1000","0","0","3000","0","0","0","0","1500","0","2","Eskannif","47pct","40pct","499","2","Scientific","47pct","62pct","499"
"120219","15:26:38","7","7","4.0.10.0","3","5","EC_Training_N_Competent_L_Warm_Block_2","EC_Training_Trial_L_Warm","1000","0","0","3000","0","0","0","0","1500","0","3","Omeelup","47pct","40pct","499","1","Friendly","47pct","62pct","499"
"120219","15:26:38","7","7","4.0.10.0","3","6","EC_Training_N_Competent_L_Warm_Block_2","EC_Training_Trial_N_Competent","1000","0","0","3000","0","0","0","0","1500","0","2","Eskannif","47pct","40pct","499","1","Smart","47pct","62pct","499"
"120219","15:26:38","7","7","4.0.10.0","3","7","EC_Training_N_Competent_L_Warm_Block_2","EC_Training_Trial_L_Warm","1000","0","0","3000","0","0","0","0","1500","0","4","Wenaalup","47pct","40pct","499","3","Kind","47pct","62pct","499"
"120219","15:26:38","7","7","4.0.10.0","3","8","EC_Training_N_Competent_L_Warm_Block_2","EC_Training_Trial_N_Competent","1000","0","0","3000","0","0","0","0","1500","0","3","Lebbunif","47pct","40pct","499","3","Confident","47pct","62pct","499"
"120219","15:26:38","7","7","4.0.10.0","3","9","EC_Training_N_Competent_L_Warm_Block_2","EC_Training_Trial_L_Warm","1000","0","0","3000","0","0","0","0","1500","0","2","Neenolup","47pct","40pct","499","4","Good-natured","47pct","62pct","499"
"120219","15:26:38","7","7","4.0.10.0","3","10","EC_Training_N_Competent_L_Warm_Block_2","EC_Training_Trial_N_Competent","1000","0","0","3000","0","0","0","0","1500","0","1","Cellanif","47pct","40pct","499","2","Scientific","47pct","62pct","499"
"120219","15:26:38","7","7","4.0.10.0","3","11","EC_Training_N_Competent_L_Warm_Block_2","EC_Training_Trial_L_Warm","1000","0","0","3000","0","0","0","0","1500","0","1","Maasolup","47pct","40pct","499","2","Helpful","47pct","62pct","499"
"120219","15:26:38","7","7","4.0.10.0","3","12","EC_Training_N_Competent_L_Warm_Block_2","EC_Training_Trial_N_Competent","1000","0","0","3000","0","0","0","0","1500","0","4","Zallunif","47pct","40pct","499","4","Determined","47pct","62pct","499"
"120219","15:26:38","7","7","4.0.10.0","3","13","EC_Training_N_Competent_L_Warm_Block_2","EC_Training_Trial_L_Warm","1000","0","0","3000","0","0","0","0","1500","0","4","Wenaalup","47pct","40pct","499","1","Friendly","47pct","62pct","499"
"120219","15:26:38","7","7","4.0.10.0","3","14","EC_Training_N_Competent_L_Warm_Block_2","EC_Training_Trial_N_Competent","1000","0","0","3000","0","0","0","0","1500","0","3","Lebbunif","47pct","40pct","499","2","Scientific","47pct","62pct","499"
"120219","15:26:38","7","7","4.0.10.0","3","15","EC_Training_N_Competent_L_Warm_Block_2","EC_Training_Trial_L_Warm","1000","0","0","3000","0","0","0","0","1500","0","3","Omeelup","47pct","40pct","499","4","Good-natured","47pct","62pct","499"
"120219","15:26:38","7","7","4.0.10.0","3","16","EC_Training_N_Competent_L_Warm_Block_2","EC_Training_Trial_N_Competent","1000","0","0","3000","0","0","0","0","1500","0","1","Cellanif","47pct","40pct","499","4","Determined","47pct","62pct","499"
"120219","15:26:38","7","7","4.0.10.0","3","17","EC_Training_N_Competent_L_Warm_Block_2","EC_Training_Trial_L_Warm","1000","0","0","3000","0","0","0","0","1500","0","1","Maasolup","47pct","40pct","499","3","Kind","47pct","62pct","499"
"120219","15:26:38","7","7","4.0.10.0","3","18","EC_Training_N_Competent_L_Warm_Block_2","EC_Training_Trial_N_Competent","1000","0","0","3000","0","0","0","0","1500","0","4","Zallunif","47pct","40pct","499","3","Confident","47pct","62pct","499"
"120219","15:26:38","7","7","4.0.10.0","3","19","EC_Training_N_Competent_L_Warm_Block_2","EC_Training_Trial_L_Warm","1000","0","0","3000","0","0","0","0","1500","0","2","Neenolup","47pct","40pct","499","2","Helpful","47pct","62pct","499"
"120219","15:26:38","7","7","4.0.10.0","3","20","EC_Training_N_Competent_L_Warm_Block_2","EC_Training_Trial_N_Competent","1000","0","0","3000","0","0","0","0","1500","0","2","Eskannif","47pct","40pct","499","1","Smart","47pct","62pct","499"
"120219","15:26:38","7","7","4.0.10.0","4","1","preiat","preiat","0","0","0","0","0","0","next","0","18543","0","1","instIATster.htm","50pct","50pct","1237","1","Press here to continue","85pct","50pct","1237"
"120219","15:30:42","15","15","4.0.10.0","1","1","Begin1","groups","0","0","0","0","0","0","next","0","20967","0","1","groups.htm","50pct","50pct","757","1","Press here to continue","85pct","50pct","757"
"120219","15:30:42","15","15","4.0.10.0","2","1","EC_Training_N_Competent_L_Warm_Block_1","EC_Training_Trial_N_Competent","1000","0","0","3000","0","0","0","0","1500","0","4","Zallunif","47pct","40pct","499","4","Determined","47pct","62pct","499"
"120219","15:30:42","15","15","4.0.10.0","2","2","EC_Training_N_Competent_L_Warm_Block_1","EC_Training_Trial_L_Warm","1000","0","0","3000","0","0","0","0","1500","0","4","Wenaalup","47pct","40pct","499","2","Helpful","47pct","62pct","499"
"120219","15:30:42","15","15","4.0.10.0","2","3","EC_Training_N_Competent_L_Warm_Block_1","EC_Training_Trial_N_Competent","1000","0","0","3000","0","0","0","0","1500","0","2","Eskannif","47pct","40pct","499","1","Smart","47pct","62pct","499"
"120219","15:30:42","15","15","4.0.10.0","2","4","EC_Training_N_Competent_L_Warm_Block_1","EC_Training_Trial_L_Warm","1000","0","0","3000","0","0","0","0","1500","0","3","Omeelup","47pct","40pct","499","1","Friendly","47pct","62pct","499"
"120219","15:30:42","15","15","4.0.10.0","2","5","EC_Training_N_Competent_L_Warm_Block_1","EC_Training_Trial_N_Competent","1000","0","0","3000","0","0","0","0","1500","0","3","Lebbunif","47pct","40pct","499","3","Confident","47pct","62pct","499"
"120219","15:30:42","15","15","4.0.10.0","2","6","EC_Training_N_Competent_L_Warm_Block_1","EC_Training_Trial_L_Warm","1000","0","0","3000","0","0","0","0","1500","0","2","Neenolup","47pct","40pct","499","4","Good-natured","47pct","62pct","499"
"120219","15:30:42","15","15","4.0.10.0","2","7","EC_Training_N_Competent_L_Warm_Block_1","EC_Training_Trial_N_Competent","1000","0","0","3000","0","0","0","0","1500","0","1","Cellanif","47pct","40pct","499","2","Scientific","47pct","62pct","499"
"120219","15:30:42","15","15","4.0.10.0","2","8","EC_Training_N_Competent_L_Warm_Block_1","EC_Training_Trial_L_Warm","1000","0","0","3000","0","0","0","0","1500","0","1","Maasolup","47pct","40pct","499","3","Kind","47pct","62pct","499"
"120219","15:30:42","15","15","4.0.10.0","2","9","EC_Training_N_Competent_L_Warm_Block_1","EC_Training_Trial_N_Competent","1000","0","0","3000","0","0","0","0","1500","0","1","Cellanif","47pct","40pct","499","2","Scientific","47pct","62pct","499"
"120219","15:30:42","15","15","4.0.10.0","2","10","EC_Training_N_Competent_L_Warm_Block_1","EC_Training_Trial_L_Warm","1000","0","0","3000","0","0","0","0","1500","0","1","Maasolup","47pct","40pct","499","4","Good-natured","47pct","62pct","499"
"120219","15:30:42","15","15","4.0.10.0","2","11","EC_Training_N_Competent_L_Warm_Block_1","EC_Training_Trial_N_Competent","1000","0","0","3000","0","0","0","0","1500","0","2","Eskannif","47pct","40pct","499","1","Smart","47pct","62pct","499"
"120219","15:30:42","15","15","4.0.10.0","2","12","EC_Training_N_Competent_L_Warm_Block_1","EC_Training_Trial_L_Warm","1000","0","0","3000","0","0","0","0","1500","0","2","Neenolup","47pct","40pct","499","3","Kind","47pct","62pct","499"
"120219","15:30:42","15","15","4.0.10.0","2","13","EC_Training_N_Competent_L_Warm_Block_1","EC_Training_Trial_N_Competent","1000","0","0","3000","0","0","0","0","1500","0","3","Lebbunif","47pct","40pct","499","4","Determined","47pct","62pct","499"
"120219","15:30:42","15","15","4.0.10.0","2","14","EC_Training_N_Competent_L_Warm_Block_1","EC_Training_Trial_L_Warm","1000","0","0","3000","0","0","0","0","1500","0","4","Wenaalup","47pct","40pct","499","2","Helpful","47pct","62pct","499"
"120219","15:30:42","15","15","4.0.10.0","2","15","EC_Training_N_Competent_L_Warm_Block_1","EC_Training_Trial_N_Competent","1000","0","0","3000","0","0","0","0","1500","0","4","Zallunif","47pct","40pct","499","3","Confident","47pct","62pct","499"
"120219","15:30:42","15","15","4.0.10.0","2","16","EC_Training_N_Competent_L_Warm_Block_1","EC_Training_Trial_L_Warm","1000","0","0","3000","0","0","0","0","1500","0","3","Omeelup","47pct","40pct","499","1","Friendly","47pct","62pct","499"
"120219","15:30:42","15","15","4.0.10.0","2","17","EC_Training_N_Competent_L_Warm_Block_1","EC_Training_Trial_N_Competent","1000","0","0","3000","0","0","0","0","1500","0","1","Cellanif","47pct","40pct","499","3","Confident","47pct","62pct","499"
"120219","15:30:42","15","15","4.0.10.0","2","18","EC_Training_N_Competent_L_Warm_Block_1","EC_Training_Trial_L_Warm","1000","0","0","3000","0","0","0","0","1500","0","2","Neenolup","47pct","40pct","499","3","Kind","47pct","62pct","499"
"120219","15:30:42","15","15","4.0.10.0","2","19","EC_Training_N_Competent_L_Warm_Block_1","EC_Training_Trial_N_Competent","1000","0","0","3000","0","0","0","0","1500","0","4","Zallunif","47pct","40pct","499","2","Scientific","47pct","62pct","499"
"120219","15:30:42","15","15","4.0.10.0","2","20","EC_Training_N_Competent_L_Warm_Block_1","EC_Training_Trial_L_Warm","1000","0","0","3000","0","0","0","0","1500","0","3","Omeelup","47pct","40pct","499","4","Good-natured","47pct","62pct","499"
"120219","15:30:42","15","15","4.0.10.0","3","1","EC_Training_N_Competent_L_Warm_Block_2","EC_Training_Trial_L_Warm","1000","0","0","3000","0","0","0","0","1500","0","1","Maasolup","47pct","40pct","499","1","Friendly","47pct","62pct","499"
"120219","15:30:42","15","15","4.0.10.0","3","2","EC_Training_N_Competent_L_Warm_Block_2","EC_Training_Trial_N_Competent","1000","0","0","3000","0","0","0","0","1500","0","2","Eskannif","47pct","40pct","499","4","Determined","47pct","62pct","499"
"120219","15:30:42","15","15","4.0.10.0","3","3","EC_Training_N_Competent_L_Warm_Block_2","EC_Training_Trial_L_Warm","1000","0","0","3000","0","0","0","0","1500","0","4","Wenaalup","47pct","40pct","499","2","Helpful","47pct","62pct","499"
"120219","15:30:42","15","15","4.0.10.0","3","4","EC_Training_N_Competent_L_Warm_Block_2","EC_Training_Trial_N_Competent","1000","0","0","3000","0","0","0","0","1500","0","3","Lebbunif","47pct","40pct","499","1","Smart","47pct","62pct","499"
"120219","15:30:42","15","15","4.0.10.0","3","5","EC_Training_N_Competent_L_Warm_Block_2","EC_Training_Trial_L_Warm","1000","0","0","3000","0","0","0","0","1500","0","1","Maasolup","47pct","40pct","499","4","Good-natured","47pct","62pct","499"
"120219","15:30:42","15","15","4.0.10.0","3","6","EC_Training_N_Competent_L_Warm_Block_2","EC_Training_Trial_N_Competent","1000","0","0","3000","0","0","0","0","1500","0","1","Cellanif","47pct","40pct","499","2","Scientific","47pct","62pct","499"
"120219","15:30:42","15","15","4.0.10.0","3","7","EC_Training_N_Competent_L_Warm_Block_2","EC_Training_Trial_L_Warm","1000","0","0","3000","0","0","0","0","1500","0","4","Wenaalup","47pct","40pct","499","1","Friendly","47pct","62pct","499"
"120219","15:30:42","15","15","4.0.10.0","3","8","EC_Training_N_Competent_L_Warm_Block_2","EC_Training_Trial_N_Competent","1000","0","0","3000","0","0","0","0","1500","0","3","Lebbunif","47pct","40pct","499","4","Determined","47pct","62pct","499"
"120219","15:30:42","15","15","4.0.10.0","3","9","EC_Training_N_Competent_L_Warm_Block_2","EC_Training_Trial_L_Warm","1000","0","0","3000","0","0","0","0","1500","0","2","Neenolup","47pct","40pct","499","3","Kind","47pct","62pct","499"
"120219","15:30:42","15","15","4.0.10.0","3","10","EC_Training_N_Competent_L_Warm_Block_2","EC_Training_Trial_N_Competent","1000","0","0","3000","0","0","0","0","1500","0","4","Zallunif","47pct","40pct","499","1","Smart","47pct","62pct","499"
"120219","15:30:42","15","15","4.0.10.0","3","11","EC_Training_N_Competent_L_Warm_Block_2","EC_Training_Trial_L_Warm","1000","0","0","3000","0","0","0","0","1500","0","3","Omeelup","47pct","40pct","499","2","Helpful","47pct","62pct","499"
"120219","15:30:42","15","15","4.0.10.0","3","12","EC_Training_N_Competent_L_Warm_Block_2","EC_Training_Trial_N_Competent","1000","0","0","3000","0","0","0","0","1500","0","2","Eskannif","47pct","40pct","499","3","Confident","47pct","62pct","499"
"120219","15:30:42","15","15","4.0.10.0","3","13","EC_Training_N_Competent_L_Warm_Block_2","EC_Training_Trial_L_Warm","1000","0","0","3000","0","0","0","0","1500","0","1","Maasolup","47pct","40pct","499","4","Good-natured","47pct","62pct","499"
"120219","15:30:42","15","15","4.0.10.0","3","14","EC_Training_N_Competent_L_Warm_Block_2","EC_Training_Trial_N_Competent","1000","0","0","3000","0","0","0","0","1500","0","3","Lebbunif","47pct","40pct","499","3","Confident","47pct","62pct","499"
"120219","15:30:42","15","15","4.0.10.0","3","15","EC_Training_N_Competent_L_Warm_Block_2","EC_Training_Trial_L_Warm","1000","0","0","3000","0","0","0","0","1500","0","3","Omeelup","47pct","40pct","499","2","Helpful","47pct","62pct","499"
"120219","15:30:42","15","15","4.0.10.0","3","16","EC_Training_N_Competent_L_Warm_Block_2","EC_Training_Trial_N_Competent","1000","0","0","3000","0","0","0","0","1500","0","4","Zallunif","47pct","40pct","499","4","Determined","47pct","62pct","499"
"120219","15:30:42","15","15","4.0.10.0","3","17","EC_Training_N_Competent_L_Warm_Block_2","EC_Training_Trial_L_Warm","1000","0","0","3000","0","0","0","0","1500","0","2","Neenolup","47pct","40pct","499","1","Friendly","47pct","62pct","499"
"120219","15:30:42","15","15","4.0.10.0","3","18","EC_Training_N_Competent_L_Warm_Block_2","EC_Training_Trial_N_Competent","1000","0","0","3000","0","0","0","0","1500","0","1","Cellanif","47pct","40pct","499","2","Scientific","47pct","62pct","499"
"120219","15:30:42","15","15","4.0.10.0","3","19","EC_Training_N_Competent_L_Warm_Block_2","EC_Training_Trial_L_Warm","1000","0","0","3000","0","0","0","0","1500","0","4","Wenaalup","47pct","40pct","499","3","Kind","47pct","62pct","499"
"120219","15:30:42","15","15","4.0.10.0","3","20","EC_Training_N_Competent_L_Warm_Block_2","EC_Training_Trial_N_Competent","1000","0","0","3000","0","0","0","0","1500","0","2","Eskannif","47pct","40pct","499","1","Smart","47pct","62pct","499"
"120219","15:30:42","15","15","4.0.10.0","4","1","preiat","preiat","0","0","0","0","0","0","next","0","25494","0","1","instIATster.htm","50pct","50pct","925","1","Press here to continue","85pct","50pct","925"
"120219","15:30:57","14","14","4.0.10.0","1","1","Begin1","groups","0","0","0","0","0","0","next","0","26813","0","1","groups.htm","50pct","50pct","144","1","Press here to continue","85pct","50pct","144"
"120219","15:30:57","14","14","4.0.10.0","2","1","EC_Training_N_Competent_L_Warm_Block_1","EC_Training_Trial_L_Warm","1000","0","0","3000","0","0","0","0","1509","0","1","Maasolup","47pct","40pct","491","4","Good-natured","47pct","62pct","491"
"120219","15:30:57","14","14","4.0.10.0","2","2","EC_Training_N_Competent_L_Warm_Block_1","EC_Training_Trial_N_Competent","1000","0","0","3000","0","0","0","0","1509","0","2","Eskannif","47pct","40pct","491","3","Confident","47pct","62pct","491"
"120219","15:30:57","14","14","4.0.10.0","2","3","EC_Training_N_Competent_L_Warm_Block_1","EC_Training_Trial_L_Warm","1000","0","0","3000","0","0","0","0","1509","0","3","Omeelup","47pct","40pct","491","2","Helpful","47pct","62pct","491"
"120219","15:30:57","14","14","4.0.10.0","2","4","EC_Training_N_Competent_L_Warm_Block_1","EC_Training_Trial_N_Competent","1000","0","0","3000","0","0","0","0","1509","0","1","Cellanif","47pct","40pct","491","1","Smart","47pct","62pct","491"
"120219","15:30:57","14","14","4.0.10.0","2","5","EC_Training_N_Competent_L_Warm_Block_1","EC_Training_Trial_L_Warm","1000","0","0","3000","0","0","0","0","1509","0","4","Wenaalup","47pct","40pct","491","3","Kind","47pct","62pct","491"
"120219","15:30:57","14","14","4.0.10.0","2","6","EC_Training_N_Competent_L_Warm_Block_1","EC_Training_Trial_N_Competent","1000","0","0","3000","0","0","0","0","1509","0","3","Lebbunif","47pct","40pct","491","2","Scientific","47pct","62pct","491"
"120219","15:30:57","14","14","4.0.10.0","2","7","EC_Training_N_Competent_L_Warm_Block_1","EC_Training_Trial_L_Warm","1000","0","0","3000","0","0","0","0","1509","0","2","Neenolup","47pct","40pct","491","1","Friendly","47pct","62pct","491"
"120219","15:30:57","14","14","4.0.10.0","2","8","EC_Training_N_Competent_L_Warm_Block_1","EC_Training_Trial_N_Competent","1000","0","0","3000","0","0","0","0","1509","0","4","Zallunif","47pct","40pct","491","4","Determined","47pct","62pct","491"
"120219","15:30:57","14","14","4.0.10.0","2","9","EC_Training_N_Competent_L_Warm_Block_1","EC_Training_Trial_L_Warm","1000","0","0","3000","0","0","0","0","1509","0","3","Omeelup","47pct","40pct","491","1","Friendly","47pct","62pct","491"
"120219","15:30:57","14","14","4.0.10.0","2","10","EC_Training_N_Competent_L_Warm_Block_1","EC_Training_Trial_N_Competent","1000","0","0","3000","0","0","0","0","1509","0","2","Eskannif","47pct","40pct","491","3","Confident","47pct","62pct","491"
"120219","15:30:57","14","14","4.0.10.0","2","11","EC_Training_N_Competent_L_Warm_Block_1","EC_Training_Trial_L_Warm","1000","0","0","3000","0","0","0","0","1509","0","4","Wenaalup","47pct","40pct","491","4","Good-natured","47pct","62pct","491"
"120219","15:30:57","14","14","4.0.10.0","2","12","EC_Training_N_Competent_L_Warm_Block_1","EC_Training_Trial_N_Competent","1000","0","0","3000","0","0","0","0","1509","0","3","Lebbunif","47pct","40pct","491","1","Smart","47pct","62pct","491"
"120219","15:30:57","14","14","4.0.10.0","2","13","EC_Training_N_Competent_L_Warm_Block_1","EC_Training_Trial_L_Warm","1000","0","0","3000","0","0","0","0","1509","0","1","Maasolup","47pct","40pct","491","2","Helpful","47pct","62pct","491"
"120219","15:30:57","14","14","4.0.10.0","2","14","EC_Training_N_Competent_L_Warm_Block_1","EC_Training_Trial_N_Competent","1000","0","0","3000","0","0","0","0","1509","0","1","Cellanif","47pct","40pct","491","4","Determined","47pct","62pct","491"
"120219","15:30:57","14","14","4.0.10.0","2","15","EC_Training_N_Competent_L_Warm_Block_1","EC_Training_Trial_L_Warm","1000","0","0","3000","0","0","0","0","1509","0","2","Neenolup","47pct","40pct","491","3","Kind","47pct","62pct","491"
"120219","15:30:57","14","14","4.0.10.0","2","16","EC_Training_N_Competent_L_Warm_Block_1","EC_Training_Trial_N_Competent","1000","0","0","3000","0","0","0","0","1509","0","4","Zallunif","47pct","40pct","491","2","Scientific","47pct","62pct","491"
"120219","15:30:57","14","14","4.0.10.0","2","17","EC_Training_N_Competent_L_Warm_Block_1","EC_Training_Trial_L_Warm","1000","0","0","3000","0","0","0","0","1509","0","4","Wenaalup","47pct","40pct","491","4","Good-natured","47pct","62pct","491"
"120219","15:30:57","14","14","4.0.10.0","2","18","EC_Training_N_Competent_L_Warm_Block_1","EC_Training_Trial_N_Competent","1000","0","0","3000","0","0","0","0","1509","0","4","Zallunif","47pct","40pct","491","2","Scientific","47pct","62pct","491"
"120219","15:30:57","14","14","4.0.10.0","2","19","EC_Training_N_Competent_L_Warm_Block_1","EC_Training_Trial_L_Warm","1000","0","0","3000","0","0","0","0","1509","0","2","Neenolup","47pct","40pct","491","1","Friendly","47pct","62pct","491"
"120219","15:30:57","14","14","4.0.10.0","2","20","EC_Training_N_Competent_L_Warm_Block_1","EC_Training_Trial_N_Competent","1000","0","0","3000","0","0","0","0","1509","0","3","Lebbunif","47pct","40pct","491","4","Determined","47pct","62pct","491"
"120219","15:30:57","14","14","4.0.10.0","3","1","EC_Training_N_Competent_L_Warm_Block_2","EC_Training_Trial_N_Competent","1000","0","0","3000","0","0","0","0","1509","0","2","Eskannif","47pct","40pct","491","3","Confident","47pct","62pct","491"
"120219","15:30:57","14","14","4.0.10.0","3","2","EC_Training_N_Competent_L_Warm_Block_2","EC_Training_Trial_L_Warm","1000","0","0","3000","0","0","0","0","1509","0","1","Maasolup","47pct","40pct","491","2","Helpful","47pct","62pct","491"
"120219","15:30:57","14","14","4.0.10.0","3","3","EC_Training_N_Competent_L_Warm_Block_2","EC_Training_Trial_N_Competent","1000","0","0","3000","0","0","0","0","1509","0","1","Cellanif","47pct","40pct","491","1","Smart","47pct","62pct","491"
"120219","15:30:57","14","14","4.0.10.0","3","4","EC_Training_N_Competent_L_Warm_Block_2","EC_Training_Trial_L_Warm","1000","0","0","3000","0","0","0","0","1509","0","3","Omeelup","47pct","40pct","491","3","Kind","47pct","62pct","491"
"120219","15:30:57","14","14","4.0.10.0","3","5","EC_Training_N_Competent_L_Warm_Block_2","EC_Training_Trial_N_Competent","1000","0","0","3000","0","0","0","0","1509","0","3","Lebbunif","47pct","40pct","491","1","Smart","47pct","62pct","491"
"120219","15:30:57","14","14","4.0.10.0","3","6","EC_Training_N_Competent_L_Warm_Block_2","EC_Training_Trial_L_Warm","1000","0","0","3000","0","0","0","0","1509","0","1","Maasolup","47pct","40pct","491","3","Kind","47pct","62pct","491"
"120219","15:30:57","14","14","4.0.10.0","3","7","EC_Training_N_Competent_L_Warm_Block_2","EC_Training_Trial_N_Competent","1000","0","0","3000","0","0","0","0","1509","0","4","Zallunif","47pct","40pct","491","4","Determined","47pct","62pct","491"
"120219","15:30:57","14","14","4.0.10.0","3","8","EC_Training_N_Competent_L_Warm_Block_2","EC_Training_Trial_L_Warm","1000","0","0","3000","0","0","0","0","1509","0","2","Neenolup","47pct","40pct","491","4","Good-natured","47pct","62pct","491"
"120219","15:30:57","14","14","4.0.10.0","3","9","EC_Training_N_Competent_L_Warm_Block_2","EC_Training_Trial_N_Competent","1000","0","0","3000","0","0","0","0","1509","0","1","Cellanif","47pct","40pct","491","3","Confident","47pct","62pct","491"
"120219","15:30:57","14","14","4.0.10.0","3","10","EC_Training_N_Competent_L_Warm_Block_2","EC_Training_Trial_L_Warm","1000","0","0","3000","0","0","0","0","1509","0","4","Wenaalup","47pct","40pct","491","2","Helpful","47pct","62pct","491"
"120219","15:30:57","14","14","4.0.10.0","3","11","EC_Training_N_Competent_L_Warm_Block_2","EC_Training_Trial_N_Competent","1000","0","0","3000","0","0","0","0","1509","0","2","Eskannif","47pct","40pct","491","2","Scientific","47pct","62pct","491"
"120219","15:30:57","14","14","4.0.10.0","3","12","EC_Training_N_Competent_L_Warm_Block_2","EC_Training_Trial_L_Warm","1000","0","0","3000","0","0","0","0","1509","0","3","Omeelup","47pct","40pct","491","1","Friendly","47pct","62pct","491"
"120219","15:30:57","14","14","4.0.10.0","3","13","EC_Training_N_Competent_L_Warm_Block_2","EC_Training_Trial_N_Competent","1000","0","0","3000","0","0","0","0","1509","0","3","Lebbunif","47pct","40pct","491","2","Scientific","47pct","62pct","491"
"120219","15:30:57","14","14","4.0.10.0","3","14","EC_Training_N_Competent_L_Warm_Block_2","EC_Training_Trial_L_Warm","1000","0","0","3000","0","0","0","0","1509","0","4","Wenaalup","47pct","40pct","491","3","Kind","47pct","62pct","491"
"120219","15:30:57","14","14","4.0.10.0","3","15","EC_Training_N_Competent_L_Warm_Block_2","EC_Training_Trial_N_Competent","1000","0","0","3000","0","0","0","0","1509","0","2","Eskannif","47pct","40pct","491","1","Smart","47pct","62pct","491"
"120219","15:30:57","14","14","4.0.10.0","3","16","EC_Training_N_Competent_L_Warm_Block_2","EC_Training_Trial_L_Warm","1000","0","0","3000","0","0","0","0","1509","0","2","Neenolup","47pct","40pct","491","1","Friendly","47pct","62pct","491"
"120219","15:30:57","14","14","4.0.10.0","3","17","EC_Training_N_Competent_L_Warm_Block_2","EC_Training_Trial_N_Competent","1000","0","0","3000","0","0","0","0","1509","0","4","Zallunif","47pct","40pct","491","3","Confident","47pct","62pct","491"
"120219","15:30:57","14","14","4.0.10.0","3","18","EC_Training_N_Competent_L_Warm_Block_2","EC_Training_Trial_L_Warm","1000","0","0","3000","0","0","0","0","1509","0","1","Maasolup","47pct","40pct","491","4","Good-natured","47pct","62pct","491"
"120219","15:30:57","14","14","4.0.10.0","3","19","EC_Training_N_Competent_L_Warm_Block_2","EC_Training_Trial_N_Competent","1000","0","0","3000","0","0","0","0","1509","0","1","Cellanif","47pct","40pct","491","4","Determined","47pct","62pct","491"
"120219","15:30:57","14","14","4.0.10.0","3","20","EC_Training_N_Competent_L_Warm_Block_2","EC_Training_Trial_L_Warm","1000","0","0","3000","0","0","0","0","1509","0","3","Omeelup","47pct","40pct","491","2","Helpful","47pct","62pct","491"
"120219","15:30:57","14","14","4.0.10.0","4","1","preiat","preiat","0","0","0","0","0","0","next","0","51756","0","1","instIATster.htm","50pct","50pct","245","1","Press here to continue","85pct","50pct","245"
"120219","10:37:10","30","30","4.0.10.0","1","1","Begin1","groups","0","0","0","0","0","0","next","0","23818","0","1","groups.htm","50pct","50pct","548","1","Press here to continue","85pct","50pct","548"
"120219","10:37:10","30","30","4.0.10.0","2","1","EC_Training_N_Competent_L_Warm_Block_1","EC_Training_Trial_L_Warm","1000","0","0","3000","0","0","0","0","1500","0","2","Neenolup","47pct","40pct","499","1","Friendly","47pct","62pct","499"
"120219","10:37:10","30","30","4.0.10.0","2","2","EC_Training_N_Competent_L_Warm_Block_1","EC_Training_Trial_N_Competent","1000","0","0","3000","0","0","0","0","1500","0","2","Eskannif","47pct","40pct","499","4","Determined","47pct","62pct","499"
"120219","10:37:10","30","30","4.0.10.0","2","3","EC_Training_N_Competent_L_Warm_Block_1","EC_Training_Trial_L_Warm","1000","0","0","3000","0","0","0","0","1500","0","4","Wenaalup","47pct","40pct","499","3","Kind","47pct","62pct","499"
"120219","10:37:10","30","30","4.0.10.0","2","4","EC_Training_N_Competent_L_Warm_Block_1","EC_Training_Trial_N_Competent","1000","0","0","3000","0","0","0","0","1500","0","4","Zallunif","47pct","40pct","499","3","Confident","47pct","62pct","499"
"120219","10:37:10","30","30","4.0.10.0","2","5","EC_Training_N_Competent_L_Warm_Block_1","EC_Training_Trial_L_Warm","1000","0","0","3000","0","0","0","0","1500","0","1","Maasolup","47pct","40pct","499","2","Helpful","47pct","62pct","499"
"120219","10:37:10","30","30","4.0.10.0","2","6","EC_Training_N_Competent_L_Warm_Block_1","EC_Training_Trial_N_Competent","1000","0","0","3000","0","0","0","0","1500","0","1","Cellanif","47pct","40pct","499","1","Smart","47pct","62pct","499"
"120219","10:37:10","30","30","4.0.10.0","2","7","EC_Training_N_Competent_L_Warm_Block_1","EC_Training_Trial_L_Warm","1000","0","0","3000","0","0","0","0","1500","0","3","Omeelup","47pct","40pct","499","4","Good-natured","47pct","62pct","499"
"120219","10:37:10","30","30","4.0.10.0","2","8","EC_Training_N_Competent_L_Warm_Block_1","EC_Training_Trial_N_Competent","1000","0","0","3000","0","0","0","0","1500","0","3","Lebbunif","47pct","40pct","499","2","Scientific","47pct","62pct","499"
"120219","10:37:10","30","30","4.0.10.0","2","9","EC_Training_N_Competent_L_Warm_Block_1","EC_Training_Trial_L_Warm","1000","0","0","3000","0","0","0","0","1500","0","3","Omeelup","47pct","40pct","499","1","Friendly","47pct","62pct","499"
"120219","10:37:10","30","30","4.0.10.0","2","10","EC_Training_N_Competent_L_Warm_Block_1","EC_Training_Trial_N_Competent","1000","0","0","3000","0","0","0","0","1500","0","2","Eskannif","47pct","40pct","499","3","Confident","47pct","62pct","499"
"120219","10:37:10","30","30","4.0.10.0","2","11","EC_Training_N_Competent_L_Warm_Block_1","EC_Training_Trial_L_Warm","1000","0","0","3000","0","0","0","0","1500","0","4","Wenaalup","47pct","40pct","499","3","Kind","47pct","62pct","499"
"120219","10:37:10","30","30","4.0.10.0","2","12","EC_Training_N_Competent_L_Warm_Block_1","EC_Training_Trial_N_Competent","1000","0","0","3000","0","0","0","0","1500","0","4","Zallunif","47pct","40pct","499","1","Smart","47pct","62pct","499"
"120219","10:37:10","30","30","4.0.10.0","2","13","EC_Training_N_Competent_L_Warm_Block_1","EC_Training_Trial_L_Warm","1000","0","0","3000","0","0","0","0","1500","0","2","Neenolup","47pct","40pct","499","4","Good-natured","47pct","62pct","499"
"120219","10:37:10","30","30","4.0.10.0","2","14","EC_Training_N_Competent_L_Warm_Block_1","EC_Training_Trial_N_Competent","1000","0","0","3000","0","0","0","0","1500","0","1","Cellanif","47pct","40pct","499","2","Scientific","47pct","62pct","499"
"120219","10:37:10","30","30","4.0.10.0","2","15","EC_Training_N_Competent_L_Warm_Block_1","EC_Training_Trial_L_Warm","1000","0","0","3000","0","0","0","0","1500","0","1","Maasolup","47pct","40pct","499","2","Helpful","47pct","62pct","499"
"120219","10:37:10","30","30","4.0.10.0","2","16","EC_Training_N_Competent_L_Warm_Block_1","EC_Training_Trial_N_Competent","1000","0","0","3000","0","0","0","0","1500","0","3","Lebbunif","47pct","40pct","499","4","Determined","47pct","62pct","499"
"120219","10:37:10","30","30","4.0.10.0","2","17","EC_Training_N_Competent_L_Warm_Block_1","EC_Training_Trial_L_Warm","1000","0","0","3000","0","0","0","0","1500","0","3","Omeelup","47pct","40pct","499","3","Kind","47pct","62pct","499"
"120219","10:37:10","30","30","4.0.10.0","2","18","EC_Training_N_Competent_L_Warm_Block_1","EC_Training_Trial_N_Competent","1000","0","0","3000","0","0","0","0","1500","0","3","Lebbunif","47pct","40pct","499","2","Scientific","47pct","62pct","499"
"120219","10:37:10","30","30","4.0.10.0","2","19","EC_Training_N_Competent_L_Warm_Block_1","EC_Training_Trial_L_Warm","1000","0","0","3000","0","0","0","0","1500","0","4","Wenaalup","47pct","40pct","499","2","Helpful","47pct","62pct","499"
"120219","10:37:10","30","30","4.0.10.0","2","20","EC_Training_N_Competent_L_Warm_Block_1","EC_Training_Trial_N_Competent","1000","0","0","3000","0","0","0","0","1500","0","2","Eskannif","47pct","40pct","499","3","Confident","47pct","62pct","499"
"120219","10:37:10","30","30","4.0.10.0","3","1","EC_Training_N_Competent_L_Warm_Block_2","EC_Training_Trial_L_Warm","1000","0","0","3000","0","0","0","0","1500","0","2","Neenolup","47pct","40pct","499","4","Good-natured","47pct","62pct","499"
"120219","10:37:10","30","30","4.0.10.0","3","2","EC_Training_N_Competent_L_Warm_Block_2","EC_Training_Trial_N_Competent","1000","0","0","3000","0","0","0","0","1500","0","1","Cellanif","47pct","40pct","499","4","Determined","47pct","62pct","499"
"120219","10:37:10","30","30","4.0.10.0","3","3","EC_Training_N_Competent_L_Warm_Block_2","EC_Training_Trial_L_Warm","1000","0","0","3000","0","0","0","0","1500","0","1","Maasolup","47pct","40pct","499","1","Friendly","47pct","62pct","499"
"120219","10:37:10","30","30","4.0.10.0","3","4","EC_Training_N_Competent_L_Warm_Block_2","EC_Training_Trial_N_Competent","1000","0","0","3000","0","0","0","0","1500","0","4","Zallunif","47pct","40pct","499","1","Smart","47pct","62pct","499"
"120219","10:37:10","30","30","4.0.10.0","3","5","EC_Training_N_Competent_L_Warm_Block_2","EC_Training_Trial_L_Warm","1000","0","0","3000","0","0","0","0","1500","0","1","Maasolup","47pct","40pct","499","3","Kind","47pct","62pct","499"
"120219","10:37:10","30","30","4.0.10.0","3","6","EC_Training_N_Competent_L_Warm_Block_2","EC_Training_Trial_N_Competent","1000","0","0","3000","0","0","0","0","1500","0","4","Zallunif","47pct","40pct","499","2","Scientific","47pct","62pct","499"
"120219","10:37:10","30","30","4.0.10.0","3","7","EC_Training_N_Competent_L_Warm_Block_2","EC_Training_Trial_L_Warm","1000","0","0","3000","0","0","0","0","1500","0","4","Wenaalup","47pct","40pct","499","4","Good-natured","47pct","62pct","499"
"120219","10:37:10","30","30","4.0.10.0","3","8","EC_Training_N_Competent_L_Warm_Block_2","EC_Training_Trial_N_Competent","1000","0","0","3000","0","0","0","0","1500","0","3","Lebbunif","47pct","40pct","499","4","Determined","47pct","62pct","499"
"120219","10:37:10","30","30","4.0.10.0","3","9","EC_Training_N_Competent_L_Warm_Block_2","EC_Training_Trial_L_Warm","1000","0","0","3000","0","0","0","0","1500","0","2","Neenolup","47pct","40pct","499","2","Helpful","47pct","62pct","499"
"120219","10:37:10","30","30","4.0.10.0","3","10","EC_Training_N_Competent_L_Warm_Block_2","EC_Training_Trial_N_Competent","1000","0","0","3000","0","0","0","0","1500","0","2","Eskannif","47pct","40pct","499","1","Smart","47pct","62pct","499"
"120219","10:37:10","30","30","4.0.10.0","3","11","EC_Training_N_Competent_L_Warm_Block_2","EC_Training_Trial_L_Warm","1000","0","0","3000","0","0","0","0","1500","0","3","Omeelup","47pct","40pct","499","1","Friendly","47pct","62pct","499"
"120219","10:37:10","30","30","4.0.10.0","3","12","EC_Training_N_Competent_L_Warm_Block_2","EC_Training_Trial_N_Competent","1000","0","0","3000","0","0","0","0","1500","0","1","Cellanif","47pct","40pct","499","3","Confident","47pct","62pct","499"
"120219","10:37:10","30","30","4.0.10.0","3","13","EC_Training_N_Competent_L_Warm_Block_2","EC_Training_Trial_L_Warm","1000","0","0","3000","0","0","0","0","1500","0","3","Omeelup","47pct","40pct","499","1","Friendly","47pct","62pct","499"
"120219","10:37:10","30","30","4.0.10.0","3","14","EC_Training_N_Competent_L_Warm_Block_2","EC_Training_Trial_N_Competent","1000","0","0","3000","0","0","0","0","1500","0","2","Eskannif","47pct","40pct","499","4","Determined","47pct","62pct","499"
"120219","10:37:10","30","30","4.0.10.0","3","15","EC_Training_N_Competent_L_Warm_Block_2","EC_Training_Trial_L_Warm","1000","0","0","3000","0","0","0","0","1500","0","2","Neenolup","47pct","40pct","499","4","Good-natured","47pct","62pct","499"
"120219","10:37:10","30","30","4.0.10.0","3","16","EC_Training_N_Competent_L_Warm_Block_2","EC_Training_Trial_N_Competent","1000","0","0","3000","0","0","0","0","1500","0","3","Lebbunif","47pct","40pct","499","2","Scientific","47pct","62pct","499"
"120219","10:37:10","30","30","4.0.10.0","3","17","EC_Training_N_Competent_L_Warm_Block_2","EC_Training_Trial_L_Warm","1000","0","0","3000","0","0","0","0","1500","0","4","Wenaalup","47pct","40pct","499","3","Kind","47pct","62pct","499"
"120219","10:37:10","30","30","4.0.10.0","3","18","EC_Training_N_Competent_L_Warm_Block_2","EC_Training_Trial_N_Competent","1000","0","0","3000","0","0","0","0","1500","0","4","Zallunif","47pct","40pct","499","1","Smart","47pct","62pct","499"
"120219","10:37:10","30","30","4.0.10.0","3","19","EC_Training_N_Competent_L_Warm_Block_2","EC_Training_Trial_L_Warm","1000","0","0","3000","0","0","0","0","1500","0","1","Maasolup","47pct","40pct","499","2","Helpful","47pct","62pct","499"
"120219","10:37:10","30","30","4.0.10.0","3","20","EC_Training_N_Competent_L_Warm_Block_2","EC_Training_Trial_N_Competent","1000","0","0","3000","0","0","0","0","1500","0","1","Cellanif","47pct","40pct","499","3","Confident","47pct","62pct","499"
"120219","10:37:10","30","30","4.0.10.0","4","1","preiat","preiat","0","0","0","0","0","0","next","0","22921","0","1","instIATster.htm","50pct","50pct","700","1","Press here to continue","85pct","50pct","700"
"120219","15:35:46","21","21","4.0.10.0","1","1","Begin1","groups","0","0","0","0","0","0","next","0","63427","0","1","groups.htm","50pct","50pct","158","1","Press here to continue","85pct","50pct","158"
"120219","15:35:46","21","21","4.0.10.0","2","1","EC_Training_N_Competent_L_Warm_Block_1","EC_Training_Trial_L_Warm","1000","0","0","3000","0","0","0","0","1500","0","3","Omeelup","47pct","40pct","499","4","Good-natured","47pct","62pct","499"
"120219","15:35:46","21","21","4.0.10.0","2","2","EC_Training_N_Competent_L_Warm_Block_1","EC_Training_Trial_N_Competent","1000","0","0","3000","0","0","0","0","1500","0","4","Zallunif","47pct","40pct","499","1","Smart","47pct","62pct","499"
"120219","15:35:46","21","21","4.0.10.0","2","3","EC_Training_N_Competent_L_Warm_Block_1","EC_Training_Trial_L_Warm","1000","0","0","3000","0","0","0","0","1500","0","4","Wenaalup","47pct","40pct","499","1","Friendly","47pct","62pct","499"
"120219","15:35:46","21","21","4.0.10.0","2","4","EC_Training_N_Competent_L_Warm_Block_1","EC_Training_Trial_N_Competent","1000","0","0","3000","0","0","0","0","1500","0","3","Lebbunif","47pct","40pct","499","3","Confident","47pct","62pct","499"
"120219","15:35:46","21","21","4.0.10.0","2","5","EC_Training_N_Competent_L_Warm_Block_1","EC_Training_Trial_L_Warm","1000","0","0","3000","0","0","0","0","1500","0","2","Neenolup","47pct","40pct","499","2","Helpful","47pct","62pct","499"
"120219","15:35:46","21","21","4.0.10.0","2","6","EC_Training_N_Competent_L_Warm_Block_1","EC_Training_Trial_N_Competent","1000","0","0","3000","0","0","0","0","1500","0","2","Eskannif","47pct","40pct","499","2","Scientific","47pct","62pct","499"
"120219","15:35:46","21","21","4.0.10.0","2","7","EC_Training_N_Competent_L_Warm_Block_1","EC_Training_Trial_L_Warm","1000","0","0","3000","0","0","0","0","1500","0","1","Maasolup","47pct","40pct","499","3","Kind","47pct","62pct","499"
"120219","15:35:46","21","21","4.0.10.0","2","8","EC_Training_N_Competent_L_Warm_Block_1","EC_Training_Trial_N_Competent","1000","0","0","3000","0","0","0","0","1500","0","1","Cellanif","47pct","40pct","499","4","Determined","47pct","62pct","499"
"120219","15:35:46","21","21","4.0.10.0","2","9","EC_Training_N_Competent_L_Warm_Block_1","EC_Training_Trial_L_Warm","1000","0","0","3000","0","0","0","0","1500","0","3","Omeelup","47pct","40pct","499","4","Good-natured","47pct","62pct","499"
"120219","15:35:46","21","21","4.0.10.0","2","10","EC_Training_N_Competent_L_Warm_Block_1","EC_Training_Trial_N_Competent","1000","0","0","3000","0","0","0","0","1500","0","1","Cellanif","47pct","40pct","499","3","Confident","47pct","62pct","499"
"120219","15:35:46","21","21","4.0.10.0","2","11","EC_Training_N_Competent_L_Warm_Block_1","EC_Training_Trial_L_Warm","1000","0","0","3000","0","0","0","0","1500","0","1","Maasolup","47pct","40pct","499","3","Kind","47pct","62pct","499"
"120219","15:35:46","21","21","4.0.10.0","2","12","EC_Training_N_Competent_L_Warm_Block_1","EC_Training_Trial_N_Competent","1000","0","0","3000","0","0","0","0","1500","0","4","Zallunif","47pct","40pct","499","2","Scientific","47pct","62pct","499"
"120219","15:35:46","21","21","4.0.10.0","2","13","EC_Training_N_Competent_L_Warm_Block_1","EC_Training_Trial_L_Warm","1000","0","0","3000","0","0","0","0","1500","0","4","Wenaalup","47pct","40pct","499","2","Helpful","47pct","62pct","499"
"120219","15:35:46","21","21","4.0.10.0","2","14","EC_Training_N_Competent_L_Warm_Block_1","EC_Training_Trial_N_Competent","1000","0","0","3000","0","0","0","0","1500","0","3","Lebbunif","47pct","40pct","499","1","Smart","47pct","62pct","499"
"120219","15:35:46","21","21","4.0.10.0","2","15","EC_Training_N_Competent_L_Warm_Block_1","EC_Training_Trial_L_Warm","1000","0","0","3000","0","0","0","0","1500","0","2","Neenolup","47pct","40pct","499","1","Friendly","47pct","62pct","499"
"120219","15:35:46","21","21","4.0.10.0","2","16","EC_Training_N_Competent_L_Warm_Block_1","EC_Training_Trial_N_Competent","1000","0","0","3000","0","0","0","0","1500","0","2","Eskannif","47pct","40pct","499","4","Determined","47pct","62pct","499"
"120219","15:35:46","21","21","4.0.10.0","2","17","EC_Training_N_Competent_L_Warm_Block_1","EC_Training_Trial_L_Warm","1000","0","0","3000","0","0","0","0","1500","0","3","Omeelup","47pct","40pct","499","1","Friendly","47pct","62pct","499"
"120219","15:35:46","21","21","4.0.10.0","2","18","EC_Training_N_Competent_L_Warm_Block_1","EC_Training_Trial_N_Competent","1000","0","0","3000","0","0","0","0","1500","0","4","Zallunif","47pct","40pct","499","1","Smart","47pct","62pct","499"
"120219","15:35:46","21","21","4.0.10.0","2","19","EC_Training_N_Competent_L_Warm_Block_1","EC_Training_Trial_L_Warm","1000","0","0","3000","0","0","0","0","1500","0","4","Wenaalup","47pct","40pct","499","4","Good-natured","47pct","62pct","499"
"120219","15:35:46","21","21","4.0.10.0","2","20","EC_Training_N_Competent_L_Warm_Block_1","EC_Training_Trial_N_Competent","1000","0","0","3000","0","0","0","0","1500","0","2","Eskannif","47pct","40pct","499","3","Confident","47pct","62pct","499"
"120219","15:35:46","21","21","4.0.10.0","3","1","EC_Training_N_Competent_L_Warm_Block_2","EC_Training_Trial_N_Competent","1000","0","0","3000","0","0","0","0","1500","0","3","Lebbunif","47pct","40pct","499","2","Scientific","47pct","62pct","499"
"120219","15:35:46","21","21","4.0.10.0","3","2","EC_Training_N_Competent_L_Warm_Block_2","EC_Training_Trial_L_Warm","1000","0","0","3000","0","0","0","0","1500","0","2","Neenolup","47pct","40pct","499","3","Kind","47pct","62pct","499"
"120219","15:35:46","21","21","4.0.10.0","3","3","EC_Training_N_Competent_L_Warm_Block_2","EC_Training_Trial_N_Competent","1000","0","0","3000","0","0","0","0","1500","0","1","Cellanif","47pct","40pct","499","4","Determined","47pct","62pct","499"
"120219","15:35:46","21","21","4.0.10.0","3","4","EC_Training_N_Competent_L_Warm_Block_2","EC_Training_Trial_L_Warm","1000","0","0","3000","0","0","0","0","1500","0","1","Maasolup","47pct","40pct","499","2","Helpful","47pct","62pct","499"
"120219","15:35:46","21","21","4.0.10.0","3","5","EC_Training_N_Competent_L_Warm_Block_2","EC_Training_Trial_N_Competent","1000","0","0","3000","0","0","0","0","1500","0","3","Lebbunif","47pct","40pct","499","2","Scientific","47pct","62pct","499"
"120219","15:35:46","21","21","4.0.10.0","3","6","EC_Training_N_Competent_L_Warm_Block_2","EC_Training_Trial_L_Warm","1000","0","0","3000","0","0","0","0","1500","0","1","Maasolup","47pct","40pct","499","2","Helpful","47pct","62pct","499"
"120219","15:35:46","21","21","4.0.10.0","3","7","EC_Training_N_Competent_L_Warm_Block_2","EC_Training_Trial_N_Competent","1000","0","0","3000","0","0","0","0","1500","0","1","Cellanif","47pct","40pct","499","4","Determined","47pct","62pct","499"
"120219","15:35:46","21","21","4.0.10.0","3","8","EC_Training_N_Competent_L_Warm_Block_2","EC_Training_Trial_L_Warm","1000","0","0","3000","0","0","0","0","1500","0","2","Neenolup","47pct","40pct","499","3","Kind","47pct","62pct","499"
"120219","15:35:46","21","21","4.0.10.0","3","9","EC_Training_N_Competent_L_Warm_Block_2","EC_Training_Trial_N_Competent","1000","0","0","3000","0","0","0","0","1500","0","4","Zallunif","47pct","40pct","499","3","Confident","47pct","62pct","499"
"120219","15:35:46","21","21","4.0.10.0","3","10","EC_Training_N_Competent_L_Warm_Block_2","EC_Training_Trial_L_Warm","1000","0","0","3000","0","0","0","0","1500","0","3","Omeelup","47pct","40pct","499","4","Good-natured","47pct","62pct","499"
"120219","15:35:46","21","21","4.0.10.0","3","11","EC_Training_N_Competent_L_Warm_Block_2","EC_Training_Trial_N_Competent","1000","0","0","3000","0","0","0","0","1500","0","2","Eskannif","47pct","40pct","499","1","Smart","47pct","62pct","499"
"120219","15:35:46","21","21","4.0.10.0","3","12","EC_Training_N_Competent_L_Warm_Block_2","EC_Training_Trial_L_Warm","1000","0","0","3000","0","0","0","0","1500","0","4","Wenaalup","47pct","40pct","499","1","Friendly","47pct","62pct","499"
"120219","15:35:46","21","21","4.0.10.0","3","13","EC_Training_N_Competent_L_Warm_Block_2","EC_Training_Trial_N_Competent","1000","0","0","3000","0","0","0","0","1500","0","2","Eskannif","47pct","40pct","499","1","Smart","47pct","62pct","499"
"120219","15:35:46","21","21","4.0.10.0","3","14","EC_Training_N_Competent_L_Warm_Block_2","EC_Training_Trial_L_Warm","1000","0","0","3000","0","0","0","0","1500","0","4","Wenaalup","47pct","40pct","499","3","Kind","47pct","62pct","499"
"120219","15:35:46","21","21","4.0.10.0","3","15","EC_Training_N_Competent_L_Warm_Block_2","EC_Training_Trial_N_Competent","1000","0","0","3000","0","0","0","0","1500","0","4","Zallunif","47pct","40pct","499","3","Confident","47pct","62pct","499"
"120219","15:35:46","21","21","4.0.10.0","3","16","EC_Training_N_Competent_L_Warm_Block_2","EC_Training_Trial_L_Warm","1000","0","0","3000","0","0","0","0","1500","0","1","Maasolup","47pct","40pct","499","2","Helpful","47pct","62pct","499"
"120219","15:35:46","21","21","4.0.10.0","3","17","EC_Training_N_Competent_L_Warm_Block_2","EC_Training_Trial_N_Competent","1000","0","0","3000","0","0","0","0","1500","0","1","Cellanif","47pct","40pct","499","2","Scientific","47pct","62pct","499"
"120219","15:35:46","21","21","4.0.10.0","3","18","EC_Training_N_Competent_L_Warm_Block_2","EC_Training_Trial_L_Warm","1000","0","0","3000","0","0","0","0","1500","0","2","Neenolup","47pct","40pct","499","1","Friendly","47pct","62pct","499"
"120219","15:35:46","21","21","4.0.10.0","3","19","EC_Training_N_Competent_L_Warm_Block_2","EC_Training_Trial_N_Competent","1000","0","0","3000","0","0","0","0","1500","0","3","Lebbunif","47pct","40pct","499","4","Determined","47pct","62pct","499"
"120219","15:35:46","21","21","4.0.10.0","3","20","EC_Training_N_Competent_L_Warm_Block_2","EC_Training_Trial_L_Warm","1000","0","0","3000","0","0","0","0","1500","0","3","Omeelup","47pct","40pct","499","4","Good-natured","47pct","62pct","499"
"120219","15:35:46","21","21","4.0.10.0","4","1","preiat","preiat","0","0","0","0","0","0","next","0","43809","0","1","instIATster.htm","50pct","50pct","377","1","Press here to continue","85pct","50pct","377"
"120219","15:37:59","22","22","4.0.10.0","1","1","Begin1","groups","0","0","0","0","0","0","next","0","38438","0","1","groups.htm","50pct","50pct","220","1","Press here to continue","85pct","50pct","220"
"120219","15:37:59","22","22","4.0.10.0","2","1","EC_Training_N_Competent_L_Warm_Block_1","EC_Training_Trial_N_Competent","1000","0","0","3000","0","0","0","0","1500","0","2","Eskannif","47pct","40pct","499","3","Confident","47pct","62pct","499"
"120219","15:37:59","22","22","4.0.10.0","2","2","EC_Training_N_Competent_L_Warm_Block_1","EC_Training_Trial_L_Warm","1000","0","0","3000","0","0","0","0","1500","0","1","Maasolup","47pct","40pct","499","2","Helpful","47pct","62pct","499"
"120219","15:37:59","22","22","4.0.10.0","2","3","EC_Training_N_Competent_L_Warm_Block_1","EC_Training_Trial_N_Competent","1000","0","0","3000","0","0","0","0","1500","0","3","Lebbunif","47pct","40pct","499","1","Smart","47pct","62pct","499"
"120219","15:37:59","22","22","4.0.10.0","2","4","EC_Training_N_Competent_L_Warm_Block_1","EC_Training_Trial_L_Warm","1000","0","0","3000","0","0","0","0","1500","0","3","Omeelup","47pct","40pct","499","1","Friendly","47pct","62pct","499"
"120219","15:37:59","22","22","4.0.10.0","2","5","EC_Training_N_Competent_L_Warm_Block_1","EC_Training_Trial_N_Competent","1000","0","0","3000","0","0","0","0","1500","0","1","Cellanif","47pct","40pct","499","4","Determined","47pct","62pct","499"
"120219","15:37:59","22","22","4.0.10.0","2","6","EC_Training_N_Competent_L_Warm_Block_1","EC_Training_Trial_L_Warm","1000","0","0","3000","0","0","0","0","1500","0","4","Wenaalup","47pct","40pct","499","4","Good-natured","47pct","62pct","499"
"120219","15:37:59","22","22","4.0.10.0","2","7","EC_Training_N_Competent_L_Warm_Block_1","EC_Training_Trial_N_Competent","1000","0","0","3000","0","0","0","0","1500","0","4","Zallunif","47pct","40pct","499","2","Scientific","47pct","62pct","499"
"120219","15:37:59","22","22","4.0.10.0","2","8","EC_Training_N_Competent_L_Warm_Block_1","EC_Training_Trial_L_Warm","1000","0","0","3000","0","0","0","0","1500","0","2","Neenolup","47pct","40pct","499","3","Kind","47pct","62pct","499"
"120219","15:37:59","22","22","4.0.10.0","2","9","EC_Training_N_Competent_L_Warm_Block_1","EC_Training_Trial_N_Competent","1000","0","0","3000","0","0","0","0","1500","0","1","Cellanif","47pct","40pct","499","3","Confident","47pct","62pct","499"
"120219","15:37:59","22","22","4.0.10.0","2","10","EC_Training_N_Competent_L_Warm_Block_1","EC_Training_Trial_L_Warm","1000","0","0","3000","0","0","0","0","1500","0","2","Neenolup","47pct","40pct","499","1","Friendly","47pct","62pct","499"
"120219","15:37:59","22","22","4.0.10.0","2","11","EC_Training_N_Competent_L_Warm_Block_1","EC_Training_Trial_N_Competent","1000","0","0","3000","0","0","0","0","1500","0","2","Eskannif","47pct","40pct","499","1","Smart","47pct","62pct","499"
"120219","15:37:59","22","22","4.0.10.0","2","12","EC_Training_N_Competent_L_Warm_Block_1","EC_Training_Trial_L_Warm","1000","0","0","3000","0","0","0","0","1500","0","1","Maasolup","47pct","40pct","499","2","Helpful","47pct","62pct","499"
"120219","15:37:59","22","22","4.0.10.0","2","13","EC_Training_N_Competent_L_Warm_Block_1","EC_Training_Trial_N_Competent","1000","0","0","3000","0","0","0","0","1500","0","4","Zallunif","47pct","40pct","499","4","Determined","47pct","62pct","499"
"120219","15:37:59","22","22","4.0.10.0","2","14","EC_Training_N_Competent_L_Warm_Block_1","EC_Training_Trial_L_Warm","1000","0","0","3000","0","0","0","0","1500","0","4","Wenaalup","47pct","40pct","499","3","Kind","47pct","62pct","499"
"120219","15:37:59","22","22","4.0.10.0","2","15","EC_Training_N_Competent_L_Warm_Block_1","EC_Training_Trial_N_Competent","1000","0","0","3000","0","0","0","0","1500","0","3","Lebbunif","47pct","40pct","499","2","Scientific","47pct","62pct","499"
"120219","15:37:59","22","22","4.0.10.0","2","16","EC_Training_N_Competent_L_Warm_Block_1","EC_Training_Trial_L_Warm","1000","0","0","3000","0","0","0","0","1500","0","3","Omeelup","47pct","40pct","500","4","Good-natured","47pct","62pct","500"
"120219","15:37:59","22","22","4.0.10.0","2","17","EC_Training_N_Competent_L_Warm_Block_1","EC_Training_Trial_N_Competent","1000","0","0","3000","0","0","0","0","1500","0","1","Cellanif","47pct","40pct","499","3","Confident","47pct","62pct","499"
"120219","15:37:59","22","22","4.0.10.0","2","18","EC_Training_N_Competent_L_Warm_Block_1","EC_Training_Trial_L_Warm","1000","0","0","3000","0","0","0","0","1500","0","3","Omeelup","47pct","40pct","499","4","Good-natured","47pct","62pct","499"
"120219","15:37:59","22","22","4.0.10.0","2","19","EC_Training_N_Competent_L_Warm_Block_1","EC_Training_Trial_N_Competent","1000","0","0","3000","0","0","0","0","1500","0","2","Eskannif","47pct","40pct","499","1","Smart","47pct","62pct","499"
"120219","15:37:59","22","22","4.0.10.0","2","20","EC_Training_N_Competent_L_Warm_Block_1","EC_Training_Trial_L_Warm","1000","0","0","3000","0","0","0","0","1500","0","4","Wenaalup","47pct","40pct","499","1","Friendly","47pct","62pct","499"
"120219","15:37:59","22","22","4.0.10.0","3","1","EC_Training_N_Competent_L_Warm_Block_2","EC_Training_Trial_N_Competent","1000","0","0","3000","0","0","0","0","1500","0","3","Lebbunif","47pct","40pct","499","4","Determined","47pct","62pct","499"
"120219","15:37:59","22","22","4.0.10.0","3","2","EC_Training_N_Competent_L_Warm_Block_2","EC_Training_Trial_L_Warm","1000","0","0","3000","0","0","0","0","1500","0","2","Neenolup","47pct","40pct","499","2","Helpful","47pct","62pct","499"
"120219","15:37:59","22","22","4.0.10.0","3","3","EC_Training_N_Competent_L_Warm_Block_2","EC_Training_Trial_N_Competent","1000","0","0","3000","0","0","0","0","1500","0","4","Zallunif","47pct","40pct","499","2","Scientific","47pct","62pct","499"
"120219","15:37:59","22","22","4.0.10.0","3","4","EC_Training_N_Competent_L_Warm_Block_2","EC_Training_Trial_L_Warm","1000","0","0","3000","0","0","0","0","1500","0","1","Maasolup","47pct","40pct","499","3","Kind","47pct","62pct","499"
"120219","15:37:59","22","22","4.0.10.0","3","5","EC_Training_N_Competent_L_Warm_Block_2","EC_Training_Trial_N_Competent","1000","0","0","3000","0","0","0","0","1500","0","1","Cellanif","47pct","40pct","499","1","Smart","47pct","62pct","499"
"120219","15:37:59","22","22","4.0.10.0","3","6","EC_Training_N_Competent_L_Warm_Block_2","EC_Training_Trial_L_Warm","1000","0","0","3000","0","0","0","0","1500","0","3","Omeelup","47pct","40pct","499","1","Friendly","47pct","62pct","499"
"120219","15:37:59","22","22","4.0.10.0","3","7","EC_Training_N_Competent_L_Warm_Block_2","EC_Training_Trial_N_Competent","1000","0","0","3000","0","0","0","0","1500","0","3","Lebbunif","47pct","40pct","499","2","Scientific","47pct","62pct","499"
"120219","15:37:59","22","22","4.0.10.0","3","8","EC_Training_N_Competent_L_Warm_Block_2","EC_Training_Trial_L_Warm","1000","0","0","3000","0","0","0","0","1500","0","2","Neenolup","47pct","40pct","499","4","Good-natured","47pct","62pct","499"
"120219","15:37:59","22","22","4.0.10.0","3","9","EC_Training_N_Competent_L_Warm_Block_2","EC_Training_Trial_N_Competent","1000","0","0","3000","0","0","0","0","1500","0","2","Eskannif","47pct","40pct","500","4","Determined","47pct","62pct","500"
"120219","15:37:59","22","22","4.0.10.0","3","10","EC_Training_N_Competent_L_Warm_Block_2","EC_Training_Trial_L_Warm","1000","0","0","3000","0","0","0","0","1500","0","1","Maasolup","47pct","40pct","499","3","Kind","47pct","62pct","499"
"120219","15:37:59","22","22","4.0.10.0","3","11","EC_Training_N_Competent_L_Warm_Block_2","EC_Training_Trial_N_Competent","1000","0","0","3000","0","0","0","0","1500","0","4","Zallunif","47pct","40pct","499","3","Confident","47pct","62pct","499"
"120219","15:37:59","22","22","4.0.10.0","3","12","EC_Training_N_Competent_L_Warm_Block_2","EC_Training_Trial_L_Warm","1000","0","0","3000","0","0","0","0","1500","0","4","Wenaalup","47pct","40pct","499","2","Helpful","47pct","62pct","499"
"120219","15:37:59","22","22","4.0.10.0","3","13","EC_Training_N_Competent_L_Warm_Block_2","EC_Training_Trial_N_Competent","1000","0","0","3000","0","0","0","0","1500","0","2","Eskannif","47pct","40pct","499","4","Determined","47pct","62pct","499"
"120219","15:37:59","22","22","4.0.10.0","3","14","EC_Training_N_Competent_L_Warm_Block_2","EC_Training_Trial_L_Warm","1000","0","0","3000","0","0","0","0","1500","0","1","Maasolup","47pct","40pct","499","4","Good-natured","47pct","62pct","499"
"120219","15:37:59","22","22","4.0.10.0","3","15","EC_Training_N_Competent_L_Warm_Block_2","EC_Training_Trial_N_Competent","1000","0","0","3000","0","0","0","0","1500","0","1","Cellanif","47pct","40pct","500","1","Smart","47pct","62pct","500"
"120219","15:37:59","22","22","4.0.10.0","3","16","EC_Training_N_Competent_L_Warm_Block_2","EC_Training_Trial_L_Warm","1000","0","0","3000","0","0","0","0","1500","0","3","Omeelup","47pct","40pct","499","2","Helpful","47pct","62pct","499"
"120219","15:37:59","22","22","4.0.10.0","3","17","EC_Training_N_Competent_L_Warm_Block_2","EC_Training_Trial_N_Competent","1000","0","0","3000","0","0","0","0","1500","0","4","Zallunif","47pct","40pct","499","3","Confident","47pct","62pct","499"
"120219","15:37:59","22","22","4.0.10.0","3","18","EC_Training_N_Competent_L_Warm_Block_2","EC_Training_Trial_L_Warm","1000","0","0","3000","0","0","0","0","1500","0","4","Wenaalup","47pct","40pct","500","3","Kind","47pct","62pct","500"
"120219","15:37:59","22","22","4.0.10.0","3","19","EC_Training_N_Competent_L_Warm_Block_2","EC_Training_Trial_N_Competent","1000","0","0","3000","0","0","0","0","1500","0","3","Lebbunif","47pct","40pct","499","2","Scientific","47pct","62pct","499"
"120219","15:37:59","22","22","4.0.10.0","3","20","EC_Training_N_Competent_L_Warm_Block_2","EC_Training_Trial_L_Warm","1000","0","0","3000","0","0","0","0","1500","0","2","Neenolup","47pct","40pct","499","1","Friendly","47pct","62pct","499"
"120219","15:37:59","22","22","4.0.10.0","4","1","preiat","preiat","0","0","0","0","0","0","next","0","196390","0","1","instIATster.htm","50pct","50pct","580","1","Press here to continue","85pct","50pct","580"
"120219","00:06:11","37","37","4.0.10.0","1","1","Begin1","groups","0","0","0","0","0","0","next","0","10728","0","1","groups.htm","50pct","50pct","128","1","Press here to continue","85pct","50pct","128"
"120219","00:06:11","37","37","4.0.10.0","2","1","EC_Training_N_Competent_L_Warm_Block_1","EC_Training_Trial_L_Warm","1000","0","0","3000","0","0","0","0","1500","0","4","Wenaalup","47pct","40pct","499","4","Good-natured","47pct","62pct","499"
"120219","00:06:11","37","37","4.0.10.0","2","2","EC_Training_N_Competent_L_Warm_Block_1","EC_Training_Trial_N_Competent","1000","0","0","3000","0","0","0","0","1500","0","1","Cellanif","47pct","40pct","499","4","Determined","47pct","62pct","499"
"120219","00:06:11","37","37","4.0.10.0","2","3","EC_Training_N_Competent_L_Warm_Block_1","EC_Training_Trial_L_Warm","1000","0","0","3000","0","0","0","0","1500","0","2","Neenolup","47pct","40pct","499","1","Friendly","47pct","62pct","499"
"120219","00:06:11","37","37","4.0.10.0","2","4","EC_Training_N_Competent_L_Warm_Block_1","EC_Training_Trial_N_Competent","1000","0","0","3000","0","0","0","0","1500","0","3","Lebbunif","47pct","40pct","499","1","Smart","47pct","62pct","499"
"120219","00:06:11","37","37","4.0.10.0","2","5","EC_Training_N_Competent_L_Warm_Block_1","EC_Training_Trial_L_Warm","1000","0","0","3000","0","0","0","0","1500","0","1","Maasolup","47pct","40pct","499","2","Helpful","47pct","62pct","499"
"120219","00:06:11","37","37","4.0.10.0","2","6","EC_Training_N_Competent_L_Warm_Block_1","EC_Training_Trial_N_Competent","1000","0","0","3000","0","0","0","0","1500","0","2","Eskannif","47pct","40pct","499","2","Scientific","47pct","62pct","499"
"120219","00:06:11","37","37","4.0.10.0","2","7","EC_Training_N_Competent_L_Warm_Block_1","EC_Training_Trial_L_Warm","1000","0","0","3000","0","0","0","0","1500","0","3","Omeelup","47pct","40pct","499","3","Kind","47pct","62pct","499"
"120219","00:06:11","37","37","4.0.10.0","2","8","EC_Training_N_Competent_L_Warm_Block_1","EC_Training_Trial_N_Competent","1000","0","0","3000","0","0","0","0","1500","0","4","Zallunif","47pct","40pct","507","3","Confident","47pct","62pct","507"
"120219","00:06:11","37","37","4.0.10.0","2","9","EC_Training_N_Competent_L_Warm_Block_1","EC_Training_Trial_L_Warm","1000","0","0","3000","0","0","0","0","1500","0","1","Maasolup","47pct","40pct","499","3","Kind","47pct","62pct","499"
"120219","00:06:11","37","37","4.0.10.0","2","10","EC_Training_N_Competent_L_Warm_Block_1","EC_Training_Trial_N_Competent","1000","0","0","3000","0","0","0","0","1500","0","4","Zallunif","47pct","40pct","499","2","Scientific","47pct","62pct","499"
"120219","00:06:11","37","37","4.0.10.0","2","11","EC_Training_N_Competent_L_Warm_Block_1","EC_Training_Trial_L_Warm","1000","0","0","3000","0","0","0","0","1500","0","4","Wenaalup","47pct","40pct","499","4","Good-natured","47pct","62pct","499"
"120219","00:06:11","37","37","4.0.10.0","2","12","EC_Training_N_Competent_L_Warm_Block_1","EC_Training_Trial_N_Competent","1000","0","0","3000","0","0","0","0","1500","0","2","Eskannif","47pct","40pct","499","3","Confident","47pct","62pct","499"
"120219","00:06:11","37","37","4.0.10.0","2","13","EC_Training_N_Competent_L_Warm_Block_1","EC_Training_Trial_L_Warm","1000","0","0","3000","0","0","0","0","1500","0","2","Neenolup","47pct","40pct","499","1","Friendly","47pct","62pct","499"
"120219","00:06:11","37","37","4.0.10.0","2","14","EC_Training_N_Competent_L_Warm_Block_1","EC_Training_Trial_N_Competent","1000","0","0","3000","0","0","0","0","1500","0","3","Lebbunif","47pct","40pct","499","4","Determined","47pct","62pct","499"
"120219","00:06:11","37","37","4.0.10.0","2","15","EC_Training_N_Competent_L_Warm_Block_1","EC_Training_Trial_L_Warm","1000","0","0","3000","0","0","0","0","1500","0","3","Omeelup","47pct","40pct","499","2","Helpful","47pct","62pct","499"
"120219","00:06:11","37","37","4.0.10.0","2","16","EC_Training_N_Competent_L_Warm_Block_1","EC_Training_Trial_N_Competent","1000","0","0","3000","0","0","0","0","1500","0","1","Cellanif","47pct","40pct","499","1","Smart","47pct","62pct","499"
"120219","00:06:11","37","37","4.0.10.0","2","17","EC_Training_N_Competent_L_Warm_Block_1","EC_Training_Trial_L_Warm","1000","0","0","3000","0","0","0","0","1500","0","4","Wenaalup","47pct","40pct","499","4","Good-natured","47pct","62pct","499"
"120219","00:06:11","37","37","4.0.10.0","2","18","EC_Training_N_Competent_L_Warm_Block_1","EC_Training_Trial_N_Competent","1000","0","0","3000","0","0","0","0","1500","0","3","Lebbunif","47pct","40pct","499","1","Smart","47pct","62pct","499"
"120219","00:06:11","37","37","4.0.10.0","2","19","EC_Training_N_Competent_L_Warm_Block_1","EC_Training_Trial_L_Warm","1000","0","0","3000","0","0","0","0","1500","0","2","Neenolup","47pct","40pct","500","1","Friendly","47pct","62pct","500"
"120219","00:06:11","37","37","4.0.10.0","2","20","EC_Training_N_Competent_L_Warm_Block_1","EC_Training_Trial_N_Competent","1000","0","0","3000","0","0","0","0","1500","0","1","Cellanif","47pct","40pct","499","4","Determined","47pct","62pct","499"
"120219","00:06:11","37","37","4.0.10.0","3","1","EC_Training_N_Competent_L_Warm_Block_2","EC_Training_Trial_N_Competent","1000","0","0","3000","0","0","0","0","1500","0","2","Eskannif","47pct","40pct","502","3","Confident","47pct","62pct","502"
"120219","00:06:11","37","37","4.0.10.0","3","2","EC_Training_N_Competent_L_Warm_Block_2","EC_Training_Trial_L_Warm","1000","0","0","3000","0","0","0","0","1500","0","1","Maasolup","47pct","40pct","499","3","Kind","47pct","62pct","499"
"120219","00:06:11","37","37","4.0.10.0","3","3","EC_Training_N_Competent_L_Warm_Block_2","EC_Training_Trial_N_Competent","1000","0","0","3000","0","0","0","0","1500","0","4","Zallunif","47pct","40pct","499","2","Scientific","47pct","62pct","499"
"120219","00:06:11","37","37","4.0.10.0","3","4","EC_Training_N_Competent_L_Warm_Block_2","EC_Training_Trial_L_Warm","1000","0","0","3000","0","0","0","0","1500","0","3","Omeelup","47pct","40pct","499","2","Helpful","47pct","62pct","499"
"120219","00:06:11","37","37","4.0.10.0","3","5","EC_Training_N_Competent_L_Warm_Block_2","EC_Training_Trial_N_Competent","1000","0","0","3000","0","0","0","0","1500","0","3","Lebbunif","47pct","40pct","499","4","Determined","47pct","62pct","499"
"120219","00:06:11","37","37","4.0.10.0","3","6","EC_Training_N_Competent_L_Warm_Block_2","EC_Training_Trial_L_Warm","1000","0","0","3000","0","0","0","0","1500","0","4","Wenaalup","47pct","40pct","499","4","Good-natured","47pct","62pct","499"
"120219","00:06:11","37","37","4.0.10.0","3","7","EC_Training_N_Competent_L_Warm_Block_2","EC_Training_Trial_N_Competent","1000","0","0","3000","0","0","0","0","1500","0","1","Cellanif","47pct","40pct","499","3","Confident","47pct","62pct","499"
"120219","00:06:11","37","37","4.0.10.0","3","8","EC_Training_N_Competent_L_Warm_Block_2","EC_Training_Trial_L_Warm","1000","0","0","3000","0","0","0","0","1500","0","3","Omeelup","47pct","40pct","499","1","Friendly","47pct","62pct","499"
"120219","00:06:11","37","37","4.0.10.0","3","9","EC_Training_N_Competent_L_Warm_Block_2","EC_Training_Trial_N_Competent","1000","0","0","3000","0","0","0","0","1500","0","4","Zallunif","47pct","40pct","499","1","Smart","47pct","62pct","499"
"120219","00:06:11","37","37","4.0.10.0","3","10","EC_Training_N_Competent_L_Warm_Block_2","EC_Training_Trial_L_Warm","1000","0","0","3000","0","0","0","0","1500","0","2","Neenolup","47pct","40pct","499","2","Helpful","47pct","62pct","499"
"120219","00:06:11","37","37","4.0.10.0","3","11","EC_Training_N_Competent_L_Warm_Block_2","EC_Training_Trial_N_Competent","1000","0","0","3000","0","0","0","0","1500","0","2","Eskannif","47pct","40pct","499","2","Scientific","47pct","62pct","499"
"120219","00:06:11","37","37","4.0.10.0","3","12","EC_Training_N_Competent_L_Warm_Block_2","EC_Training_Trial_L_Warm","1000","0","0","3000","0","0","0","0","1500","0","1","Maasolup","47pct","40pct","499","3","Kind","47pct","62pct","499"
"120219","00:06:11","37","37","4.0.10.0","3","13","EC_Training_N_Competent_L_Warm_Block_2","EC_Training_Trial_N_Competent","1000","0","0","3000","0","0","0","0","1500","0","4","Zallunif","47pct","40pct","499","4","Determined","47pct","62pct","499"
"120219","00:06:11","37","37","4.0.10.0","3","14","EC_Training_N_Competent_L_Warm_Block_2","EC_Training_Trial_L_Warm","1000","0","0","3000","0","0","0","0","1500","0","4","Wenaalup","47pct","40pct","499","2","Helpful","47pct","62pct","499"
"120219","00:06:11","37","37","4.0.10.0","3","15","EC_Training_N_Competent_L_Warm_Block_2","EC_Training_Trial_N_Competent","1000","0","0","3000","0","0","0","0","1500","0","3","Lebbunif","47pct","40pct","499","1","Smart","47pct","62pct","499"
"120219","00:06:11","37","37","4.0.10.0","3","16","EC_Training_N_Competent_L_Warm_Block_2","EC_Training_Trial_L_Warm","1000","0","0","3000","0","0","0","0","1500","0","1","Maasolup","47pct","40pct","501","4","Good-natured","47pct","62pct","501"
"120219","00:06:11","37","37","4.0.10.0","3","17","EC_Training_N_Competent_L_Warm_Block_2","EC_Training_Trial_N_Competent","1000","0","0","3000","0","0","0","0","1500","0","1","Cellanif","47pct","40pct","499","2","Scientific","47pct","62pct","499"
"120219","00:06:11","37","37","4.0.10.0","3","18","EC_Training_N_Competent_L_Warm_Block_2","EC_Training_Trial_L_Warm","1000","0","0","3000","0","0","0","0","1500","0","2","Neenolup","47pct","40pct","499","3","Kind","47pct","62pct","499"
"120219","00:06:11","37","37","4.0.10.0","3","19","EC_Training_N_Competent_L_Warm_Block_2","EC_Training_Trial_N_Competent","1000","0","0","3000","0","0","0","0","1500","0","2","Eskannif","47pct","40pct","499","3","Confident","47pct","62pct","499"
"120219","00:06:11","37","37","4.0.10.0","3","20","EC_Training_N_Competent_L_Warm_Block_2","EC_Training_Trial_L_Warm","1000","0","0","3000","0","0","0","0","1500","0","3","Omeelup","47pct","40pct","499","1","Friendly","47pct","62pct","499"
"120219","00:06:11","37","37","4.0.10.0","4","1","preiat","preiat","0","0","0","0","0","0","next","0","16425","0","1","instIATster.htm","50pct","50pct","331","1","Press here to continue","85pct","50pct","331"
"120219","10:44:30","38","38","4.0.10.0","1","1","Begin1","groups","0","0","0","0","0","0","next","0","10332","0","1","groups.htm","50pct","50pct","449","1","Press here to continue","85pct","50pct","449"
"120219","10:44:30","38","38","4.0.10.0","2","1","EC_Training_N_Competent_L_Warm_Block_1","EC_Training_Trial_L_Warm","1000","0","0","3000","0","0","0","0","1500","0","4","Wenaalup","47pct","40pct","499","1","Friendly","47pct","62pct","499"
"120219","10:44:30","38","38","4.0.10.0","2","2","EC_Training_N_Competent_L_Warm_Block_1","EC_Training_Trial_N_Competent","1000","0","0","3000","0","0","0","0","1500","0","4","Zallunif","47pct","40pct","499","4","Determined","47pct","62pct","499"
"120219","10:44:30","38","38","4.0.10.0","2","3","EC_Training_N_Competent_L_Warm_Block_1","EC_Training_Trial_L_Warm","1000","0","0","3000","0","0","0","0","1500","0","3","Omeelup","47pct","40pct","499","4","Good-natured","47pct","62pct","499"
"120219","10:44:30","38","38","4.0.10.0","2","4","EC_Training_N_Competent_L_Warm_Block_1","EC_Training_Trial_N_Competent","1000","0","0","3000","0","0","0","0","1500","0","2","Eskannif","47pct","40pct","499","3","Confident","47pct","62pct","499"
"120219","10:44:30","38","38","4.0.10.0","2","5","EC_Training_N_Competent_L_Warm_Block_1","EC_Training_Trial_L_Warm","1000","0","0","3000","0","0","0","0","1500","0","2","Neenolup","47pct","40pct","499","3","Kind","47pct","62pct","499"
"120219","10:44:30","38","38","4.0.10.0","2","6","EC_Training_N_Competent_L_Warm_Block_1","EC_Training_Trial_N_Competent","1000","0","0","3000","0","0","0","0","1500","0","1","Cellanif","47pct","40pct","499","2","Scientific","47pct","62pct","499"
"120219","10:44:30","38","38","4.0.10.0","2","7","EC_Training_N_Competent_L_Warm_Block_1","EC_Training_Trial_L_Warm","1000","0","0","3000","0","0","0","0","1500","0","1","Maasolup","47pct","40pct","499","2","Helpful","47pct","62pct","499"
"120219","10:44:30","38","38","4.0.10.0","2","8","EC_Training_N_Competent_L_Warm_Block_1","EC_Training_Trial_N_Competent","1000","0","0","3000","0","0","0","0","1500","0","3","Lebbunif","47pct","40pct","499","1","Smart","47pct","62pct","499"
"120219","10:44:30","38","38","4.0.10.0","2","9","EC_Training_N_Competent_L_Warm_Block_1","EC_Training_Trial_L_Warm","1000","0","0","3000","0","0","0","0","1500","0","3","Omeelup","47pct","40pct","499","2","Helpful","47pct","62pct","499"
"120219","10:44:30","38","38","4.0.10.0","2","10","EC_Training_N_Competent_L_Warm_Block_1","EC_Training_Trial_N_Competent","1000","0","0","3000","0","0","0","0","1500","0","4","Zallunif","47pct","40pct","499","3","Confident","47pct","62pct","499"
"120219","10:44:30","38","38","4.0.10.0","2","11","EC_Training_N_Competent_L_Warm_Block_1","EC_Training_Trial_L_Warm","1000","0","0","3000","0","0","0","0","1500","0","4","Wenaalup","47pct","40pct","499","3","Kind","47pct","62pct","499"
"120219","10:44:30","38","38","4.0.10.0","2","12","EC_Training_N_Competent_L_Warm_Block_1","EC_Training_Trial_N_Competent","1000","0","0","3000","0","0","0","0","1500","0","1","Cellanif","47pct","40pct","499","2","Scientific","47pct","62pct","499"
"120219","10:44:30","38","38","4.0.10.0","2","13","EC_Training_N_Competent_L_Warm_Block_1","EC_Training_Trial_L_Warm","1000","0","0","3000","0","0","0","0","1500","0","2","Neenolup","47pct","40pct","499","4","Good-natured","47pct","62pct","499"
"120219","10:44:30","38","38","4.0.10.0","2","14","EC_Training_N_Competent_L_Warm_Block_1","EC_Training_Trial_N_Competent","1000","0","0","3000","0","0","0","0","1500","0","2","Eskannif","47pct","40pct","499","1","Smart","47pct","62pct","499"
"120219","10:44:30","38","38","4.0.10.0","2","15","EC_Training_N_Competent_L_Warm_Block_1","EC_Training_Trial_L_Warm","1000","0","0","3000","0","0","0","0","1500","0","1","Maasolup","47pct","40pct","499","1","Friendly","47pct","62pct","499"
"120219","10:44:30","38","38","4.0.10.0","2","16","EC_Training_N_Competent_L_Warm_Block_1","EC_Training_Trial_N_Competent","1000","0","0","3000","0","0","0","0","1500","0","3","Lebbunif","47pct","40pct","499","4","Determined","47pct","62pct","499"
"120219","10:44:30","38","38","4.0.10.0","2","17","EC_Training_N_Competent_L_Warm_Block_1","EC_Training_Trial_L_Warm","1000","0","0","3000","0","0","0","0","1500","0","4","Wenaalup","47pct","40pct","499","3","Kind","47pct","62pct","499"
"120219","10:44:30","38","38","4.0.10.0","2","18","EC_Training_N_Competent_L_Warm_Block_1","EC_Training_Trial_N_Competent","1000","0","0","3000","0","0","0","0","1500","0","1","Cellanif","47pct","40pct","499","1","Smart","47pct","62pct","499"
"120219","10:44:30","38","38","4.0.10.0","2","19","EC_Training_N_Competent_L_Warm_Block_1","EC_Training_Trial_L_Warm","1000","0","0","3000","0","0","0","0","1500","0","3","Omeelup","47pct","40pct","499","1","Friendly","47pct","62pct","499"
"120219","10:44:30","38","38","4.0.10.0","2","20","EC_Training_N_Competent_L_Warm_Block_1","EC_Training_Trial_N_Competent","1000","0","0","3000","0","0","0","0","1500","0","3","Lebbunif","47pct","40pct","499","4","Determined","47pct","62pct","499"
"120219","10:44:30","38","38","4.0.10.0","3","1","EC_Training_N_Competent_L_Warm_Block_2","EC_Training_Trial_L_Warm","1000","0","0","3000","0","0","0","0","1500","0","2","Neenolup","47pct","40pct","499","4","Good-natured","47pct","62pct","499"
"120219","10:44:30","38","38","4.0.10.0","3","2","EC_Training_N_Competent_L_Warm_Block_2","EC_Training_Trial_N_Competent","1000","0","0","3000","0","0","0","0","1500","0","2","Eskannif","47pct","40pct","499","3","Confident","47pct","62pct","499"
"120219","10:44:30","38","38","4.0.10.0","3","3","EC_Training_N_Competent_L_Warm_Block_2","EC_Training_Trial_L_Warm","1000","0","0","3000","0","0","0","0","1500","0","1","Maasolup","47pct","40pct","499","2","Helpful","47pct","62pct","499"
"120219","10:44:30","38","38","4.0.10.0","3","4","EC_Training_N_Competent_L_Warm_Block_2","EC_Training_Trial_N_Competent","1000","0","0","3000","0","0","0","0","1500","0","4","Zallunif","47pct","40pct","499","2","Scientific","47pct","62pct","499"
"120219","10:44:30","38","38","4.0.10.0","3","5","EC_Training_N_Competent_L_Warm_Block_2","EC_Training_Trial_L_Warm","1000","0","0","3000","0","0","0","0","1500","0","1","Maasolup","47pct","40pct","499","2","Helpful","47pct","62pct","499"
"120219","10:44:30","38","38","4.0.10.0","3","6","EC_Training_N_Competent_L_Warm_Block_2","EC_Training_Trial_N_Competent","1000","0","0","3000","0","0","0","0","1500","0","2","Eskannif","47pct","40pct","499","3","Confident","47pct","62pct","499"
"120219","10:44:30","38","38","4.0.10.0","3","7","EC_Training_N_Competent_L_Warm_Block_2","EC_Training_Trial_L_Warm","1000","0","0","3000","0","0","0","0","1500","0","3","Omeelup","47pct","40pct","499","1","Friendly","47pct","62pct","499"
"120219","10:44:30","38","38","4.0.10.0","3","8","EC_Training_N_Competent_L_Warm_Block_2","EC_Training_Trial_N_Competent","1000","0","0","3000","0","0","0","0","1500","0","1","Cellanif","47pct","40pct","499","4","Determined","47pct","62pct","499"
"120219","10:44:30","38","38","4.0.10.0","3","9","EC_Training_N_Competent_L_Warm_Block_2","EC_Training_Trial_L_Warm","1000","0","0","3000","0","0","0","0","1500","0","2","Neenolup","47pct","40pct","499","3","Kind","47pct","62pct","499"
"120219","10:44:30","38","38","4.0.10.0","3","10","EC_Training_N_Competent_L_Warm_Block_2","EC_Training_Trial_N_Competent","1000","0","0","3000","0","0","0","0","1500","0","3","Lebbunif","47pct","40pct","499","1","Smart","47pct","62pct","499"
"120219","10:44:30","38","38","4.0.10.0","3","11","EC_Training_N_Competent_L_Warm_Block_2","EC_Training_Trial_L_Warm","1000","0","0","3000","0","0","0","0","1500","0","4","Wenaalup","47pct","40pct","499","4","Good-natured","47pct","62pct","499"
"120219","10:44:30","38","38","4.0.10.0","3","12","EC_Training_N_Competent_L_Warm_Block_2","EC_Training_Trial_N_Competent","1000","0","0","3000","0","0","0","0","1500","0","4","Zallunif","47pct","40pct","499","2","Scientific","47pct","62pct","499"
"120219","10:44:30","38","38","4.0.10.0","3","13","EC_Training_N_Competent_L_Warm_Block_2","EC_Training_Trial_L_Warm","1000","0","0","3000","0","0","0","0","1500","0","3","Omeelup","47pct","40pct","499","3","Kind","47pct","62pct","499"
"120219","10:44:30","38","38","4.0.10.0","3","14","EC_Training_N_Competent_L_Warm_Block_2","EC_Training_Trial_N_Competent","1000","0","0","3000","0","0","0","0","1500","0","3","Lebbunif","47pct","40pct","499","1","Smart","47pct","62pct","499"
"120219","10:44:30","38","38","4.0.10.0","3","15","EC_Training_N_Competent_L_Warm_Block_2","EC_Training_Trial_L_Warm","1000","0","0","3000","0","0","0","0","1500","0","1","Maasolup","47pct","40pct","499","2","Helpful","47pct","62pct","499"
"120219","10:44:30","38","38","4.0.10.0","3","16","EC_Training_N_Competent_L_Warm_Block_2","EC_Training_Trial_N_Competent","1000","0","0","3000","0","0","0","0","1500","0","2","Eskannif","47pct","40pct","499","3","Confident","47pct","62pct","499"
"120219","10:44:30","38","38","4.0.10.0","3","17","EC_Training_N_Competent_L_Warm_Block_2","EC_Training_Trial_L_Warm","1000","0","0","3000","0","0","0","0","1500","0","4","Wenaalup","47pct","40pct","499","4","Good-natured","47pct","62pct","499"
"120219","10:44:30","38","38","4.0.10.0","3","18","EC_Training_N_Competent_L_Warm_Block_2","EC_Training_Trial_N_Competent","1000","0","0","3000","0","0","0","0","1500","0","1","Cellanif","47pct","40pct","499","2","Scientific","47pct","62pct","499"
"120219","10:44:30","38","38","4.0.10.0","3","19","EC_Training_N_Competent_L_Warm_Block_2","EC_Training_Trial_L_Warm","1000","0","0","3000","0","0","0","0","1500","0","2","Neenolup","47pct","40pct","499","1","Friendly","47pct","62pct","499"
"120219","10:44:30","38","38","4.0.10.0","3","20","EC_Training_N_Competent_L_Warm_Block_2","EC_Training_Trial_N_Competent","1000","0","0","3000","0","0","0","0","1500","0","4","Zallunif","47pct","40pct","499","4","Determined","47pct","62pct","499"
"120219","10:44:30","38","38","4.0.10.0","4","1","preiat","preiat","0","0","0","0","0","0","next","0","14803","0","1","instIATster.htm","50pct","50pct","979","1","Press here to continue","85pct","50pct","979"
"120219","07:44:22","39","39","4.0.10.0","1","1","Begin1","groups","0","0","0","0","0","0","next","0","17811","0","1","groups.htm","50pct","50pct","178","1","Press here to continue","85pct","50pct","178"
"120219","07:44:22","39","39","4.0.10.0","2","1","EC_Training_N_Competent_L_Warm_Block_1","EC_Training_Trial_N_Competent","1000","0","0","3000","0","0","0","0","1500","0","4","Zallunif","47pct","40pct","499","1","Smart","47pct","62pct","499"
"120219","07:44:22","39","39","4.0.10.0","2","2","EC_Training_N_Competent_L_Warm_Block_1","EC_Training_Trial_L_Warm","1000","0","0","3000","0","0","0","0","1500","0","3","Omeelup","47pct","40pct","499","2","Helpful","47pct","62pct","499"
"120219","07:44:22","39","39","4.0.10.0","2","3","EC_Training_N_Competent_L_Warm_Block_1","EC_Training_Trial_N_Competent","1000","0","0","3000","0","0","0","0","1500","0","2","Eskannif","47pct","40pct","499","4","Determined","47pct","62pct","499"
"120219","07:44:22","39","39","4.0.10.0","2","4","EC_Training_N_Competent_L_Warm_Block_1","EC_Training_Trial_L_Warm","1000","0","0","3000","0","0","0","0","1500","0","1","Maasolup","47pct","40pct","499","1","Friendly","47pct","62pct","499"
"120219","07:44:22","39","39","4.0.10.0","2","5","EC_Training_N_Competent_L_Warm_Block_1","EC_Training_Trial_N_Competent","1000","0","0","3000","0","0","0","0","1500","0","1","Cellanif","47pct","40pct","499","3","Confident","47pct","62pct","499"
"120219","07:44:22","39","39","4.0.10.0","2","6","EC_Training_N_Competent_L_Warm_Block_1","EC_Training_Trial_L_Warm","1000","0","0","3000","0","0","0","0","1500","0","2","Neenolup","47pct","40pct","499","4","Good-natured","47pct","62pct","499"
"120219","07:44:22","39","39","4.0.10.0","2","7","EC_Training_N_Competent_L_Warm_Block_1","EC_Training_Trial_N_Competent","1000","0","0","3000","0","0","0","0","1500","0","3","Lebbunif","47pct","40pct","499","2","Scientific","47pct","62pct","499"
"120219","07:44:22","39","39","4.0.10.0","2","8","EC_Training_N_Competent_L_Warm_Block_1","EC_Training_Trial_L_Warm","1000","0","0","3000","0","0","0","0","1500","0","4","Wenaalup","47pct","40pct","499","3","Kind","47pct","62pct","499"
"120219","07:44:22","39","39","4.0.10.0","2","9","EC_Training_N_Competent_L_Warm_Block_1","EC_Training_Trial_N_Competent","1000","0","0","3000","0","0","0","0","1500","0","3","Lebbunif","47pct","40pct","499","2","Scientific","47pct","62pct","499"
"120219","07:44:22","39","39","4.0.10.0","2","10","EC_Training_N_Competent_L_Warm_Block_1","EC_Training_Trial_L_Warm","1000","0","0","3000","0","0","0","0","1500","0","1","Maasolup","47pct","40pct","499","4","Good-natured","47pct","62pct","499"
"120219","07:44:22","39","39","4.0.10.0","2","11","EC_Training_N_Competent_L_Warm_Block_1","EC_Training_Trial_N_Competent","1000","0","0","3000","0","0","0","0","1500","0","1","Cellanif","47pct","40pct","499","4","Determined","47pct","62pct","499"
"120219","07:44:22","39","39","4.0.10.0","2","12","EC_Training_N_Competent_L_Warm_Block_1","EC_Training_Trial_L_Warm","1000","0","0","3000","0","0","0","0","1500","0","3","Omeelup","47pct","40pct","499","2","Helpful","47pct","62pct","499"
"120219","07:44:22","39","39","4.0.10.0","2","13","EC_Training_N_Competent_L_Warm_Block_1","EC_Training_Trial_N_Competent","1000","0","0","3000","0","0","0","0","1500","0","4","Zallunif","47pct","40pct","499","1","Smart","47pct","62pct","499"
"120219","07:44:22","39","39","4.0.10.0","2","14","EC_Training_N_Competent_L_Warm_Block_1","EC_Training_Trial_L_Warm","1000","0","0","3000","0","0","0","0","1500","0","2","Neenolup","47pct","40pct","499","3","Kind","47pct","62pct","499"
"120219","07:44:22","39","39","4.0.10.0","2","15","EC_Training_N_Competent_L_Warm_Block_1","EC_Training_Trial_N_Competent","1000","0","0","3000","0","0","0","0","1500","0","2","Eskannif","47pct","40pct","499","3","Confident","47pct","62pct","499"
"120219","07:44:22","39","39","4.0.10.0","2","16","EC_Training_N_Competent_L_Warm_Block_1","EC_Training_Trial_L_Warm","1000","0","0","3000","0","0","0","0","1500","0","4","Wenaalup","47pct","40pct","499","1","Friendly","47pct","62pct","499"
"120219","07:44:22","39","39","4.0.10.0","2","17","EC_Training_N_Competent_L_Warm_Block_1","EC_Training_Trial_N_Competent","1000","0","0","3000","0","0","0","0","1500","0","2","Eskannif","47pct","40pct","499","3","Confident","47pct","62pct","499"
"120219","07:44:22","39","39","4.0.10.0","2","18","EC_Training_N_Competent_L_Warm_Block_1","EC_Training_Trial_L_Warm","1000","0","0","3000","0","0","0","0","1500","0","2","Neenolup","47pct","40pct","499","3","Kind","47pct","62pct","499"
"120219","07:44:22","39","39","4.0.10.0","2","19","EC_Training_N_Competent_L_Warm_Block_1","EC_Training_Trial_N_Competent","1000","0","0","3000","0","0","0","0","1500","0","4","Zallunif","47pct","40pct","499","1","Smart","47pct","62pct","499"
"120219","07:44:22","39","39","4.0.10.0","2","20","EC_Training_N_Competent_L_Warm_Block_1","EC_Training_Trial_L_Warm","1000","0","0","3000","0","0","0","0","1500","0","3","Omeelup","47pct","40pct","499","4","Good-natured","47pct","62pct","499"
"120219","07:44:22","39","39","4.0.10.0","3","1","EC_Training_N_Competent_L_Warm_Block_2","EC_Training_Trial_L_Warm","1000","0","0","3000","0","0","0","0","1500","0","4","Wenaalup","47pct","40pct","499","1","Friendly","47pct","62pct","499"
"120219","07:44:22","39","39","4.0.10.0","3","2","EC_Training_N_Competent_L_Warm_Block_2","EC_Training_Trial_N_Competent","1000","0","0","3000","0","0","0","0","1500","0","1","Cellanif","47pct","40pct","499","2","Scientific","47pct","62pct","499"
"120219","07:44:22","39","39","4.0.10.0","3","3","EC_Training_N_Competent_L_Warm_Block_2","EC_Training_Trial_L_Warm","1000","0","0","3000","0","0","0","0","1500","0","1","Maasolup","47pct","40pct","499","2","Helpful","47pct","62pct","499"
"120219","07:44:22","39","39","4.0.10.0","3","4","EC_Training_N_Competent_L_Warm_Block_2","EC_Training_Trial_N_Competent","1000","0","0","3000","0","0","0","0","1500","0","3","Lebbunif","47pct","40pct","499","4","Determined","47pct","62pct","499"
"120219","07:44:22","39","39","4.0.10.0","3","5","EC_Training_N_Competent_L_Warm_Block_2","EC_Training_Trial_L_Warm","1000","0","0","3000","0","0","0","0","1500","0","2","Neenolup","47pct","40pct","499","3","Kind","47pct","62pct","499"
"120219","07:44:22","39","39","4.0.10.0","3","6","EC_Training_N_Competent_L_Warm_Block_2","EC_Training_Trial_N_Competent","1000","0","0","3000","0","0","0","0","1500","0","3","Lebbunif","47pct","40pct","499","1","Smart","47pct","62pct","499"
"120219","07:44:22","39","39","4.0.10.0","3","7","EC_Training_N_Competent_L_Warm_Block_2","EC_Training_Trial_L_Warm","1000","0","0","3000","0","0","0","0","1500","0","4","Wenaalup","47pct","40pct","499","4","Good-natured","47pct","62pct","499"
"120219","07:44:22","39","39","4.0.10.0","3","8","EC_Training_N_Competent_L_Warm_Block_2","EC_Training_Trial_N_Competent","1000","0","0","3000","0","0","0","0","1500","0","4","Zallunif","47pct","40pct","499","3","Confident","47pct","62pct","499"
"120219","07:44:22","39","39","4.0.10.0","3","9","EC_Training_N_Competent_L_Warm_Block_2","EC_Training_Trial_L_Warm","1000","0","0","3000","0","0","0","0","1500","0","3","Omeelup","47pct","40pct","499","1","Friendly","47pct","62pct","499"
"120219","07:44:22","39","39","4.0.10.0","3","10","EC_Training_N_Competent_L_Warm_Block_2","EC_Training_Trial_N_Competent","1000","0","0","3000","0","0","0","0","1500","0","1","Cellanif","47pct","40pct","499","2","Scientific","47pct","62pct","499"
"120219","07:44:22","39","39","4.0.10.0","3","11","EC_Training_N_Competent_L_Warm_Block_2","EC_Training_Trial_L_Warm","1000","0","0","3000","0","0","0","0","1500","0","1","Maasolup","47pct","40pct","499","2","Helpful","47pct","62pct","499"
"120219","07:44:22","39","39","4.0.10.0","3","12","EC_Training_N_Competent_L_Warm_Block_2","EC_Training_Trial_N_Competent","1000","0","0","3000","0","0","0","0","1500","0","2","Eskannif","47pct","40pct","499","4","Determined","47pct","62pct","499"
"120219","07:44:22","39","39","4.0.10.0","3","13","EC_Training_N_Competent_L_Warm_Block_2","EC_Training_Trial_L_Warm","1000","0","0","3000","0","0","0","0","1500","0","3","Omeelup","47pct","40pct","499","3","Kind","47pct","62pct","499"
"120219","07:44:22","39","39","4.0.10.0","3","14","EC_Training_N_Competent_L_Warm_Block_2","EC_Training_Trial_N_Competent","1000","0","0","3000","0","0","0","0","1500","0","1","Cellanif","47pct","40pct","499","3","Confident","47pct","62pct","499"
