"date","time","group","subject","build","blocknum","trialnum","blockcode","trialcode","pretrialpause","posttrialpause","windowcenter","trialduration","trialtimeout","blocktimeout","response","correct","latency","inwindow","stimulusnumber1","stimulusitem1","stimulusvpos1","stimulushpos1","stimulusonset1","stimulusnumber2","stimulusitem2","stimulusvpos2","stimulushpos2","stimulusonset2"
"120219","16:14:12","1","1","4.0.10.0","1","1","Begin1","groups","0","0","0","0","0","0","next","0","1853","0","1","groups.htm","50pct","50pct","220","1","Press here to continue","85pct","50pct","220"
"120219","16:14:12","1","1","4.0.10.0","2","1","EC_Training_N_Warm_L_Competent_Block_1","EC_Training_Trial_L_Competent","1000","0","0","3000","0","0","0","0","1500","0","3","Omeelup","47pct","40pct","499","2","Scientific","47pct","62pct","499"
"120219","16:14:12","1","1","4.0.10.0","2","2","EC_Training_N_Warm_L_Competent_Block_1","EC_Training_Trial_N_Warm","1000","0","0","3000","0","0","Ctrl+'B'","1","0","0","1","Cellanif","47pct","40pct","499","3","Kind","47pct","62pct","499"
"120219","16:14:12","1","1","4.0.10.0","3","1","EC_Training_N_Warm_L_Competent_Block_2","EC_Training_Trial_L_Competent","1000","0","0","3000","0","0","Ctrl+'B'","1","457","0","4","Wenaalup","47pct","40pct","499","1","Smart","47pct","62pct","499"
"120219","16:14:12","1","1","4.0.10.0","4","1","preiat","preiat","0","0","0","0","0","0","next","0","11764","0","1","instIATster.htm","50pct","50pct","700","1","Press here to continue","85pct","50pct","700"
"120219","15:27:26","9","9","4.0.10.0","1","1","Begin1","groups","0","0","0","0","0","0","next","0","27294","0","1","groups.htm","50pct","50pct","751","1","Press here to continue","85pct","50pct","751"
"120219","15:27:26","9","9","4.0.10.0","2","1","EC_Training_N_Warm_L_Competent_Block_1","EC_Training_Trial_N_Warm","1000","0","0","3000","0","0","0","0","1500","0","1","Cellanif","47pct","40pct","499","4","Good-natured","47pct","62pct","499"
"120219","15:27:26","9","9","4.0.10.0","2","2","EC_Training_N_Warm_L_Competent_Block_1","EC_Training_Trial_L_Competent","1000","0","0","3000","0","0","0","0","1500","0","3","Omeelup","47pct","40pct","499","3","Confident","47pct","62pct","499"
"120219","15:27:26","9","9","4.0.10.0","2","3","EC_Training_N_Warm_L_Competent_Block_1","EC_Training_Trial_N_Warm","1000","0","0","3000","0","0","0","0","1500","0","3","Lebbunif","47pct","40pct","499","1","Friendly","47pct","62pct","499"
"120219","15:27:26","9","9","4.0.10.0","2","4","EC_Training_N_Warm_L_Competent_Block_1","EC_Training_Trial_L_Competent","1000","0","0","3000","0","0","0","0","1500","0","2","Neenolup","47pct","40pct","499","4","Determined","47pct","62pct","499"
"120219","15:27:26","9","9","4.0.10.0","2","5","EC_Training_N_Warm_L_Competent_Block_1","EC_Training_Trial_N_Warm","1000","0","0","3000","0","0","0","0","1500","0","2","Eskannif","47pct","40pct","499","2","Helpful","47pct","62pct","499"
"120219","15:27:26","9","9","4.0.10.0","2","6","EC_Training_N_Warm_L_Competent_Block_1","EC_Training_Trial_L_Competent","1000","0","0","3000","0","0","0","0","1500","0","4","Wenaalup","47pct","40pct","499","2","Scientific","47pct","62pct","499"
"120219","15:27:26","9","9","4.0.10.0","2","7","EC_Training_N_Warm_L_Competent_Block_1","EC_Training_Trial_N_Warm","1000","0","0","3000","0","0","0","0","1500","0","4","Zallunif","47pct","40pct","499","3","Kind","47pct","62pct","499"
"120219","15:27:26","9","9","4.0.10.0","2","8","EC_Training_N_Warm_L_Competent_Block_1","EC_Training_Trial_L_Competent","1000","0","0","3000","0","0","0","0","1500","0","1","Maasolup","47pct","40pct","499","1","Smart","47pct","62pct","499"
"120219","15:27:26","9","9","4.0.10.0","2","9","EC_Training_N_Warm_L_Competent_Block_1","EC_Training_Trial_N_Warm","1000","0","0","3000","0","0","0","0","1500","0","3","Lebbunif","47pct","40pct","499","3","Kind","47pct","62pct","499"
"120219","15:27:26","9","9","4.0.10.0","2","10","EC_Training_N_Warm_L_Competent_Block_1","EC_Training_Trial_L_Competent","1000","0","0","3000","0","0","0","0","1500","0","1","Maasolup","47pct","40pct","499","3","Confident","47pct","62pct","499"
"120219","15:27:26","9","9","4.0.10.0","2","11","EC_Training_N_Warm_L_Competent_Block_1","EC_Training_Trial_N_Warm","1000","0","0","3000","0","0","0","0","1500","0","2","Eskannif","47pct","40pct","499","4","Good-natured","47pct","62pct","499"
"120219","15:27:26","9","9","4.0.10.0","2","12","EC_Training_N_Warm_L_Competent_Block_1","EC_Training_Trial_L_Competent","1000","0","0","3000","0","0","0","0","1500","0","3","Omeelup","47pct","40pct","502","1","Smart","47pct","62pct","502"
"120219","15:27:26","9","9","4.0.10.0","2","13","EC_Training_N_Warm_L_Competent_Block_1","EC_Training_Trial_N_Warm","1000","0","0","3000","0","0","0","0","1500","0","1","Cellanif","47pct","40pct","499","2","Helpful","47pct","62pct","499"
"120219","15:27:26","9","9","4.0.10.0","2","14","EC_Training_N_Warm_L_Competent_Block_1","EC_Training_Trial_L_Competent","1000","0","0","3000","0","0","0","0","1500","0","2","Neenolup","47pct","40pct","499","4","Determined","47pct","62pct","499"
"120219","15:27:26","9","9","4.0.10.0","2","15","EC_Training_N_Warm_L_Competent_Block_1","EC_Training_Trial_N_Warm","1000","0","0","3000","0","0","0","0","1500","0","4","Zallunif","47pct","40pct","499","1","Friendly","47pct","62pct","499"
"120219","15:27:26","9","9","4.0.10.0","2","16","EC_Training_N_Warm_L_Competent_Block_1","EC_Training_Trial_L_Competent","1000","0","0","3000","0","0","0","0","1500","0","4","Wenaalup","47pct","40pct","499","2","Scientific","47pct","62pct","499"
"120219","15:27:26","9","9","4.0.10.0","2","17","EC_Training_N_Warm_L_Competent_Block_1","EC_Training_Trial_N_Warm","1000","0","0","3000","0","0","0","0","1500","0","2","Eskannif","47pct","40pct","499","3","Kind","47pct","62pct","499"
"120219","15:27:26","9","9","4.0.10.0","2","18","EC_Training_N_Warm_L_Competent_Block_1","EC_Training_Trial_L_Competent","1000","0","0","3000","0","0","0","0","1500","0","1","Maasolup","47pct","40pct","503","4","Determined","47pct","62pct","503"
"120219","15:27:26","9","9","4.0.10.0","2","19","EC_Training_N_Warm_L_Competent_Block_1","EC_Training_Trial_N_Warm","1000","0","0","3000","0","0","0","0","1500","0","3","Lebbunif","47pct","40pct","499","2","Helpful","47pct","62pct","499"
"120219","15:27:26","9","9","4.0.10.0","2","20","EC_Training_N_Warm_L_Competent_Block_1","EC_Training_Trial_L_Competent","1000","0","0","3000","0","0","0","0","1500","0","3","Omeelup","47pct","40pct","499","2","Scientific","47pct","62pct","499"
"120219","15:27:26","9","9","4.0.10.0","3","1","EC_Training_N_Warm_L_Competent_Block_2","EC_Training_Trial_N_Warm","1000","0","0","3000","0","0","0","0","1500","0","4","Zallunif","47pct","40pct","499","4","Good-natured","47pct","62pct","499"
"120219","15:27:26","9","9","4.0.10.0","3","2","EC_Training_N_Warm_L_Competent_Block_2","EC_Training_Trial_L_Competent","1000","0","0","3000","0","0","0","0","1500","0","4","Wenaalup","47pct","40pct","499","3","Confident","47pct","62pct","499"
"120219","15:27:26","9","9","4.0.10.0","3","3","EC_Training_N_Warm_L_Competent_Block_2","EC_Training_Trial_N_Warm","1000","0","0","3000","0","0","0","0","1500","0","1","Cellanif","47pct","40pct","499","1","Friendly","47pct","62pct","499"
"120219","15:27:26","9","9","4.0.10.0","3","4","EC_Training_N_Warm_L_Competent_Block_2","EC_Training_Trial_L_Competent","1000","0","0","3000","0","0","0","0","1500","0","2","Neenolup","47pct","40pct","499","1","Smart","47pct","62pct","499"
"120219","15:27:26","9","9","4.0.10.0","3","5","EC_Training_N_Warm_L_Competent_Block_2","EC_Training_Trial_N_Warm","1000","0","0","3000","0","0","0","0","1500","0","3","Lebbunif","47pct","40pct","503","1","Friendly","47pct","62pct","503"
"120219","15:27:26","9","9","4.0.10.0","3","6","EC_Training_N_Warm_L_Competent_Block_2","EC_Training_Trial_L_Competent","1000","0","0","3000","0","0","0","0","1500","0","2","Neenolup","47pct","40pct","499","3","Confident","47pct","62pct","499"
"120219","15:27:26","9","9","4.0.10.0","3","7","EC_Training_N_Warm_L_Competent_Block_2","EC_Training_Trial_N_Warm","1000","0","0","3000","0","0","0","0","1500","0","2","Eskannif","47pct","40pct","499","3","Kind","47pct","62pct","499"
"120219","15:27:26","9","9","4.0.10.0","3","8","EC_Training_N_Warm_L_Competent_Block_2","EC_Training_Trial_L_Competent","1000","0","0","3000","0","0","0","0","1500","0","4","Wenaalup","47pct","40pct","499","2","Scientific","47pct","62pct","499"
"120219","15:27:26","9","9","4.0.10.0","3","9","EC_Training_N_Warm_L_Competent_Block_2","EC_Training_Trial_N_Warm","1000","0","0","3000","0","0","0","0","1500","0","4","Zallunif","47pct","40pct","499","2","Helpful","47pct","62pct","499"
"120219","15:27:26","9","9","4.0.10.0","3","10","EC_Training_N_Warm_L_Competent_Block_2","EC_Training_Trial_L_Competent","1000","0","0","3000","0","0","0","0","1500","0","3","Omeelup","47pct","40pct","499","4","Determined","47pct","62pct","499"
"120219","15:27:26","9","9","4.0.10.0","3","11","EC_Training_N_Warm_L_Competent_Block_2","EC_Training_Trial_N_Warm","1000","0","0","3000","0","0","0","0","1500","0","1","Cellanif","47pct","40pct","499","4","Good-natured","47pct","62pct","499"
"120219","15:27:26","9","9","4.0.10.0","3","12","EC_Training_N_Warm_L_Competent_Block_2","EC_Training_Trial_L_Competent","1000","0","0","3000","0","0","0","0","1500","0","1","Maasolup","47pct","40pct","499","1","Smart","47pct","62pct","499"
"120219","15:27:26","9","9","4.0.10.0","3","13","EC_Training_N_Warm_L_Competent_Block_2","EC_Training_Trial_N_Warm","1000","0","0","3000","0","0","0","0","1500","0","4","Zallunif","47pct","40pct","499","3","Kind","47pct","62pct","499"
"120219","15:27:26","9","9","4.0.10.0","3","14","EC_Training_N_Warm_L_Competent_Block_2","EC_Training_Trial_L_Competent","1000","0","0","3000","0","0","0","0","1500","0","1","Maasolup","47pct","40pct","508","2","Scientific","47pct","62pct","508"
"120219","15:27:26","9","9","4.0.10.0","3","15","EC_Training_N_Warm_L_Competent_Block_2","EC_Training_Trial_N_Warm","1000","0","0","3000","0","0","0","0","1500","0","3","Lebbunif","47pct","40pct","499","4","Good-natured","47pct","62pct","499"
"120219","15:27:26","9","9","4.0.10.0","3","16","EC_Training_N_Warm_L_Competent_Block_2","EC_Training_Trial_L_Competent","1000","0","0","3000","0","0","0","0","1500","0","2","Neenolup","47pct","40pct","499","1","Smart","47pct","62pct","499"
"120219","15:27:26","9","9","4.0.10.0","3","17","EC_Training_N_Warm_L_Competent_Block_2","EC_Training_Trial_N_Warm","1000","0","0","3000","0","0","0","0","1500","0","1","Cellanif","47pct","40pct","499","1","Friendly","47pct","62pct","499"
"120219","15:27:26","9","9","4.0.10.0","3","18","EC_Training_N_Warm_L_Competent_Block_2","EC_Training_Trial_L_Competent","1000","0","0","3000","0","0","0","0","1500","0","3","Omeelup","47pct","40pct","499","4","Determined","47pct","62pct","499"
"120219","15:27:26","9","9","4.0.10.0","3","19","EC_Training_N_Warm_L_Competent_Block_2","EC_Training_Trial_N_Warm","1000","0","0","3000","0","0","0","0","1500","0","2","Eskannif","47pct","40pct","501","2","Helpful","47pct","62pct","501"
"120219","15:27:26","9","9","4.0.10.0","3","20","EC_Training_N_Warm_L_Competent_Block_2","EC_Training_Trial_L_Competent","1000","0","0","3000","0","0","0","0","1500","0","4","Wenaalup","47pct","40pct","499","3","Confident","47pct","62pct","499"
"120219","15:27:26","9","9","4.0.10.0","4","1","preiat","preiat","0","0","0","0","0","0","next","0","30765","0","1","instIATster.htm","50pct","50pct","871","1","Press here to continue","85pct","50pct","871"
"120219","15:35:13","20","20","4.0.10.0","1","1","Begin1","groups","0","0","0","0","0","0","next","0","25190","0","1","groups.htm","50pct","50pct","736","1","Press here to continue","85pct","50pct","736"
"120219","15:35:13","20","20","4.0.10.0","2","1","EC_Training_N_Warm_L_Competent_Block_1","EC_Training_Trial_N_Warm","1000","0","0","3000","0","0","0","0","1500","0","4","Zallunif","47pct","40pct","499","3","Kind","47pct","62pct","499"
"120219","15:35:13","20","20","4.0.10.0","2","2","EC_Training_N_Warm_L_Competent_Block_1","EC_Training_Trial_L_Competent","1000","0","0","3000","0","0","0","0","1500","0","4","Wenaalup","47pct","40pct","499","4","Determined","47pct","62pct","499"
"120219","15:35:13","20","20","4.0.10.0","2","3","EC_Training_N_Warm_L_Competent_Block_1","EC_Training_Trial_N_Warm","1000","0","0","3000","0","0","0","0","1500","0","3","Lebbunif","47pct","40pct","499","2","Helpful","47pct","62pct","499"
"120219","15:35:13","20","20","4.0.10.0","2","4","EC_Training_N_Warm_L_Competent_Block_1","EC_Training_Trial_L_Competent","1000","0","0","3000","0","0","0","0","1500","0","3","Omeelup","47pct","40pct","499","2","Scientific","47pct","62pct","499"
"120219","15:35:13","20","20","4.0.10.0","2","5","EC_Training_N_Warm_L_Competent_Block_1","EC_Training_Trial_N_Warm","1000","0","0","3000","0","0","0","0","1500","0","2","Eskannif","47pct","40pct","499","4","Good-natured","47pct","62pct","499"
"120219","15:35:13","20","20","4.0.10.0","2","6","EC_Training_N_Warm_L_Competent_Block_1","EC_Training_Trial_L_Competent","1000","0","0","3000","0","0","0","0","1500","0","2","Neenolup","47pct","40pct","499","3","Confident","47pct","62pct","499"
"120219","15:35:13","20","20","4.0.10.0","2","7","EC_Training_N_Warm_L_Competent_Block_1","EC_Training_Trial_N_Warm","1000","0","0","3000","0","0","0","0","1500","0","1","Cellanif","47pct","40pct","499","1","Friendly","47pct","62pct","499"
"120219","15:35:13","20","20","4.0.10.0","2","8","EC_Training_N_Warm_L_Competent_Block_1","EC_Training_Trial_L_Competent","1000","0","0","3000","0","0","0","0","1500","0","1","Maasolup","47pct","40pct","499","1","Smart","47pct","62pct","499"
"120219","15:35:13","20","20","4.0.10.0","2","9","EC_Training_N_Warm_L_Competent_Block_1","EC_Training_Trial_N_Warm","1000","0","0","3000","0","0","0","0","1500","0","3","Lebbunif","47pct","40pct","499","1","Friendly","47pct","62pct","499"
"120219","15:35:13","20","20","4.0.10.0","2","10","EC_Training_N_Warm_L_Competent_Block_1","EC_Training_Trial_L_Competent","1000","0","0","3000","0","0","0","0","1500","0","4","Wenaalup","47pct","40pct","499","1","Smart","47pct","62pct","499"
"120219","15:35:13","20","20","4.0.10.0","2","11","EC_Training_N_Warm_L_Competent_Block_1","EC_Training_Trial_N_Warm","1000","0","0","3000","0","0","0","0","1500","0","4","Zallunif","47pct","40pct","499","4","Good-natured","47pct","62pct","499"
"120219","15:35:13","20","20","4.0.10.0","2","12","EC_Training_N_Warm_L_Competent_Block_1","EC_Training_Trial_L_Competent","1000","0","0","3000","0","0","0","0","1500","0","3","Omeelup","47pct","40pct","499","4","Determined","47pct","62pct","499"
"120219","15:35:13","20","20","4.0.10.0","2","13","EC_Training_N_Warm_L_Competent_Block_1","EC_Training_Trial_N_Warm","1000","0","0","3000","0","0","0","0","1500","0","2","Eskannif","47pct","40pct","499","3","Kind","47pct","62pct","499"
"120219","15:35:13","20","20","4.0.10.0","2","14","EC_Training_N_Warm_L_Competent_Block_1","EC_Training_Trial_L_Competent","1000","0","0","3000","0","0","0","0","1500","0","2","Neenolup","47pct","40pct","499","2","Scientific","47pct","62pct","499"
"120219","15:35:13","20","20","4.0.10.0","2","15","EC_Training_N_Warm_L_Competent_Block_1","EC_Training_Trial_N_Warm","1000","0","0","3000","0","0","0","0","1500","0","1","Cellanif","47pct","40pct","499","2","Helpful","47pct","62pct","499"
"120219","15:35:13","20","20","4.0.10.0","2","16","EC_Training_N_Warm_L_Competent_Block_1","EC_Training_Trial_L_Competent","1000","0","0","3000","0","0","0","0","1500","0","1","Maasolup","47pct","40pct","499","3","Confident","47pct","62pct","499"
"120219","15:35:13","20","20","4.0.10.0","2","17","EC_Training_N_Warm_L_Competent_Block_1","EC_Training_Trial_N_Warm","1000","0","0","3000","0","0","0","0","1500","0","3","Lebbunif","47pct","40pct","499","2","Helpful","47pct","62pct","499"
"120219","15:35:13","20","20","4.0.10.0","2","18","EC_Training_N_Warm_L_Competent_Block_1","EC_Training_Trial_L_Competent","1000","0","0","3000","0","0","0","0","1500","0","4","Wenaalup","47pct","40pct","499","1","Smart","47pct","62pct","499"
"120219","15:35:13","20","20","4.0.10.0","2","19","EC_Training_N_Warm_L_Competent_Block_1","EC_Training_Trial_N_Warm","1000","0","0","3000","0","0","0","0","1500","0","1","Cellanif","47pct","40pct","499","1","Friendly","47pct","62pct","499"
"120219","15:35:13","20","20","4.0.10.0","2","20","EC_Training_N_Warm_L_Competent_Block_1","EC_Training_Trial_L_Competent","1000","0","0","3000","0","0","0","0","1500","0","1","Maasolup","47pct","40pct","499","4","Determined","47pct","62pct","499"
"120219","15:35:13","20","20","4.0.10.0","3","1","EC_Training_N_Warm_L_Competent_Block_2","EC_Training_Trial_N_Warm","1000","0","0","3000","0","0","0","0","1500","0","4","Zallunif","47pct","40pct","499","3","Kind","47pct","62pct","499"
"120219","15:35:13","20","20","4.0.10.0","3","2","EC_Training_N_Warm_L_Competent_Block_2","EC_Training_Trial_L_Competent","1000","0","0","3000","0","0","0","0","1500","0","3","Omeelup","47pct","40pct","499","3","Confident","47pct","62pct","499"
"120219","15:35:13","20","20","4.0.10.0","3","3","EC_Training_N_Warm_L_Competent_Block_2","EC_Training_Trial_N_Warm","1000","0","0","3000","0","0","0","0","1500","0","2","Eskannif","47pct","40pct","499","4","Good-natured","47pct","62pct","499"
"120219","15:35:13","20","20","4.0.10.0","3","4","EC_Training_N_Warm_L_Competent_Block_2","EC_Training_Trial_L_Competent","1000","0","0","3000","0","0","0","0","1500","0","2","Neenolup","47pct","40pct","499","2","Scientific","47pct","62pct","499"
"120219","15:35:13","20","20","4.0.10.0","3","5","EC_Training_N_Warm_L_Competent_Block_2","EC_Training_Trial_N_Warm","1000","0","0","3000","0","0","0","0","1500","0","2","Eskannif","47pct","40pct","499","4","Good-natured","47pct","62pct","499"
"120219","15:35:13","20","20","4.0.10.0","3","6","EC_Training_N_Warm_L_Competent_Block_2","EC_Training_Trial_L_Competent","1000","0","0","3000","0","0","0","0","1500","0","3","Omeelup","47pct","40pct","499","1","Smart","47pct","62pct","499"
"120219","15:35:13","20","20","4.0.10.0","3","7","EC_Training_N_Warm_L_Competent_Block_2","EC_Training_Trial_N_Warm","1000","0","0","3000","0","0","0","0","1500","0","3","Lebbunif","47pct","40pct","499","1","Friendly","47pct","62pct","499"
"120219","15:35:13","20","20","4.0.10.0","3","8","EC_Training_N_Warm_L_Competent_Block_2","EC_Training_Trial_L_Competent","1000","0","0","3000","0","0","0","0","1500","0","1","Maasolup","47pct","40pct","499","3","Confident","47pct","62pct","499"
"120219","15:35:13","20","20","4.0.10.0","3","9","EC_Training_N_Warm_L_Competent_Block_2","EC_Training_Trial_N_Warm","1000","0","0","3000","0","0","0","0","1500","0","4","Zallunif","47pct","40pct","499","3","Kind","47pct","62pct","499"
"120219","15:35:13","20","20","4.0.10.0","3","10","EC_Training_N_Warm_L_Competent_Block_2","EC_Training_Trial_L_Competent","1000","0","0","3000","0","0","0","0","1500","0","4","Wenaalup","47pct","40pct","499","4","Determined","47pct","62pct","499"
"120219","15:35:13","20","20","4.0.10.0","3","11","EC_Training_N_Warm_L_Competent_Block_2","EC_Training_Trial_N_Warm","1000","0","0","3000","0","0","0","0","1500","0","1","Cellanif","47pct","40pct","499","2","Helpful","47pct","62pct","499"
"120219","15:35:13","20","20","4.0.10.0","3","12","EC_Training_N_Warm_L_Competent_Block_2","EC_Training_Trial_L_Competent","1000","0","0","3000","0","0","0","0","1500","0","2","Neenolup","47pct","40pct","499","2","Scientific","47pct","62pct","499"
"120219","15:35:13","20","20","4.0.10.0","3","13","EC_Training_N_Warm_L_Competent_Block_2","EC_Training_Trial_N_Warm","1000","0","0","3000","0","0","0","0","1500","0","3","Lebbunif","47pct","40pct","499","2","Helpful","47pct","62pct","499"
"120219","15:35:13","20","20","4.0.10.0","3","14","EC_Training_N_Warm_L_Competent_Block_2","EC_Training_Trial_L_Competent","1000","0","0","3000","0","0","0","0","1500","0","1","Maasolup","47pct","40pct","499","2","Scientific","47pct","62pct","499"
"120219","15:35:13","20","20","4.0.10.0","3","15","EC_Training_N_Warm_L_Competent_Block_2","EC_Training_Trial_N_Warm","1000","0","0","3000","0","0","0","0","1500","0","4","Zallunif","47pct","40pct","499","3","Kind","47pct","62pct","499"
"120219","15:35:13","20","20","4.0.10.0","3","16","EC_Training_N_Warm_L_Competent_Block_2","EC_Training_Trial_L_Competent","1000","0","0","3000","0","0","0","0","1500","0","3","Omeelup","47pct","40pct","499","1","Smart","47pct","62pct","499"
"120219","15:35:13","20","20","4.0.10.0","3","17","EC_Training_N_Warm_L_Competent_Block_2","EC_Training_Trial_N_Warm","1000","0","0","3000","0","0","0","0","1500","0","1","Cellanif","47pct","40pct","499","1","Friendly","47pct","62pct","499"
"120219","15:35:13","20","20","4.0.10.0","3","18","EC_Training_N_Warm_L_Competent_Block_2","EC_Training_Trial_L_Competent","1000","0","0","3000","0","0","0","0","1500","0","2","Neenolup","47pct","40pct","499","3","Confident","47pct","62pct","499"
"120219","15:35:13","20","20","4.0.10.0","3","19","EC_Training_N_Warm_L_Competent_Block_2","EC_Training_Trial_N_Warm","1000","0","0","3000","0","0","0","0","1500","0","2","Eskannif","47pct","40pct","499","4","Good-natured","47pct","62pct","499"
"120219","15:35:13","20","20","4.0.10.0","3","20","EC_Training_N_Warm_L_Competent_Block_2","EC_Training_Trial_L_Competent","1000","0","0","3000","0","0","0","0","1500","0","4","Wenaalup","47pct","40pct","499","4","Determined","47pct","62pct","499"
"120219","15:35:13","20","20","4.0.10.0","4","1","preiat","preiat","0","0","0","0","0","0","next","0","29011","0","1","instIATster.htm","50pct","50pct","784","1","Press here to continue","85pct","50pct","784"
"120219","15:37:27","26","26","4.0.10.0","1","1","Begin1","groups","0","0","0","0","0","0","next","0","44208","0","1","groups.htm","50pct","50pct","55","1","Press here to continue","85pct","50pct","55"
"120219","15:37:27","26","26","4.0.10.0","2","1","EC_Training_N_Warm_L_Competent_Block_1","EC_Training_Trial_L_Competent","1000","0","0","3000","0","0","0","0","1500","0","4","Wenaalup","47pct","40pct","499","3","Confident","47pct","62pct","499"
"120219","15:37:27","26","26","4.0.10.0","2","2","EC_Training_N_Warm_L_Competent_Block_1","EC_Training_Trial_N_Warm","1000","0","0","3000","0","0","0","0","1500","0","1","Cellanif","47pct","40pct","499","2","Helpful","47pct","62pct","499"
"120219","15:37:27","26","26","4.0.10.0","2","3","EC_Training_N_Warm_L_Competent_Block_1","EC_Training_Trial_L_Competent","1000","0","0","3000","0","0","0","0","1500","0","1","Maasolup","47pct","40pct","499","4","Determined","47pct","62pct","499"
"120219","15:37:27","26","26","4.0.10.0","2","4","EC_Training_N_Warm_L_Competent_Block_1","EC_Training_Trial_N_Warm","1000","0","0","3000","0","0","0","0","1500","0","4","Zallunif","47pct","40pct","499","4","Good-natured","47pct","62pct","499"
"120219","15:37:27","26","26","4.0.10.0","2","5","EC_Training_N_Warm_L_Competent_Block_1","EC_Training_Trial_L_Competent","1000","0","0","3000","0","0","0","0","1500","0","2","Neenolup","47pct","40pct","499","1","Smart","47pct","62pct","499"
"120219","15:37:27","26","26","4.0.10.0","2","6","EC_Training_N_Warm_L_Competent_Block_1","EC_Training_Trial_N_Warm","1000","0","0","3000","0","0","0","0","1500","0","3","Lebbunif","47pct","40pct","499","1","Friendly","47pct","62pct","499"
"120219","15:37:27","26","26","4.0.10.0","2","7","EC_Training_N_Warm_L_Competent_Block_1","EC_Training_Trial_L_Competent","1000","0","0","3000","0","0","0","0","1500","0","3","Omeelup","47pct","40pct","499","2","Scientific","47pct","62pct","499"
"120219","15:37:27","26","26","4.0.10.0","2","8","EC_Training_N_Warm_L_Competent_Block_1","EC_Training_Trial_N_Warm","1000","0","0","3000","0","0","0","0","1500","0","2","Eskannif","47pct","40pct","499","3","Kind","47pct","62pct","499"
"120219","15:37:27","26","26","4.0.10.0","2","9","EC_Training_N_Warm_L_Competent_Block_1","EC_Training_Trial_L_Competent","1000","0","0","3000","0","0","0","0","1500","0","1","Maasolup","47pct","40pct","499","4","Determined","47pct","62pct","499"
"120219","15:37:27","26","26","4.0.10.0","2","10","EC_Training_N_Warm_L_Competent_Block_1","EC_Training_Trial_N_Warm","1000","0","0","3000","0","0","0","0","1500","0","1","Cellanif","47pct","40pct","499","1","Friendly","47pct","62pct","499"
"120219","15:37:27","26","26","4.0.10.0","2","11","EC_Training_N_Warm_L_Competent_Block_1","EC_Training_Trial_L_Competent","1000","0","0","3000","0","0","0","0","1500","0","3","Omeelup","47pct","40pct","499","3","Confident","47pct","62pct","499"
"120219","15:37:27","26","26","4.0.10.0","2","12","EC_Training_N_Warm_L_Competent_Block_1","EC_Training_Trial_N_Warm","1000","0","0","3000","0","0","0","0","1500","0","4","Zallunif","47pct","40pct","499","3","Kind","47pct","62pct","499"
"120219","15:37:27","26","26","4.0.10.0","2","13","EC_Training_N_Warm_L_Competent_Block_1","EC_Training_Trial_L_Competent","1000","0","0","3000","0","0","0","0","1500","0","4","Wenaalup","47pct","40pct","499","1","Smart","47pct","62pct","499"
"120219","15:37:27","26","26","4.0.10.0","2","14","EC_Training_N_Warm_L_Competent_Block_1","EC_Training_Trial_N_Warm","1000","0","0","3000","0","0","0","0","1500","0","2","Eskannif","47pct","40pct","499","4","Good-natured","47pct","62pct","499"
"120219","15:37:27","26","26","4.0.10.0","2","15","EC_Training_N_Warm_L_Competent_Block_1","EC_Training_Trial_L_Competent","1000","0","0","3000","0","0","0","0","1500","0","2","Neenolup","47pct","40pct","499","2","Scientific","47pct","62pct","499"
"120219","15:37:27","26","26","4.0.10.0","2","16","EC_Training_N_Warm_L_Competent_Block_1","EC_Training_Trial_N_Warm","1000","0","0","3000","0","0","0","0","1500","0","3","Lebbunif","47pct","40pct","499","2","Helpful","47pct","62pct","499"
"120219","15:37:27","26","26","4.0.10.0","2","17","EC_Training_N_Warm_L_Competent_Block_1","EC_Training_Trial_L_Competent","1000","0","0","3000","0","0","0","0","1500","0","4","Wenaalup","47pct","40pct","499","4","Determined","47pct","62pct","499"
"120219","15:37:27","26","26","4.0.10.0","2","18","EC_Training_N_Warm_L_Competent_Block_1","EC_Training_Trial_N_Warm","1000","0","0","3000","0","0","0","0","1500","0","3","Lebbunif","47pct","40pct","499","2","Helpful","47pct","62pct","499"
"120219","15:37:27","26","26","4.0.10.0","2","19","EC_Training_N_Warm_L_Competent_Block_1","EC_Training_Trial_L_Competent","1000","0","0","3000","0","0","0","0","1500","0","1","Maasolup","47pct","40pct","499","2","Scientific","47pct","62pct","499"
"120219","15:37:27","26","26","4.0.10.0","2","20","EC_Training_N_Warm_L_Competent_Block_1","EC_Training_Trial_N_Warm","1000","0","0","3000","0","0","0","0","1500","0","4","Zallunif","47pct","40pct","499","3","Kind","47pct","62pct","499"
"120219","15:37:27","26","26","4.0.10.0","3","1","EC_Training_N_Warm_L_Competent_Block_2","EC_Training_Trial_N_Warm","1000","0","0","3000","0","0","0","0","1500","0","1","Cellanif","47pct","40pct","499","1","Friendly","47pct","62pct","499"
"120219","15:37:27","26","26","4.0.10.0","3","2","EC_Training_N_Warm_L_Competent_Block_2","EC_Training_Trial_L_Competent","1000","0","0","3000","0","0","0","0","1500","0","2","Neenolup","47pct","40pct","499","1","Smart","47pct","62pct","499"
"120219","15:37:27","26","26","4.0.10.0","3","3","EC_Training_N_Warm_L_Competent_Block_2","EC_Training_Trial_N_Warm","1000","0","0","3000","0","0","0","0","1500","0","2","Eskannif","47pct","40pct","499","4","Good-natured","47pct","62pct","499"
"120219","15:37:27","26","26","4.0.10.0","3","4","EC_Training_N_Warm_L_Competent_Block_2","EC_Training_Trial_L_Competent","1000","0","0","3000","0","0","0","0","1500","0","3","Omeelup","47pct","40pct","499","3","Confident","47pct","62pct","499"
"120219","15:37:27","26","26","4.0.10.0","3","5","EC_Training_N_Warm_L_Competent_Block_2","EC_Training_Trial_N_Warm","1000","0","0","3000","0","0","0","0","1500","0","2","Eskannif","47pct","40pct","499","1","Friendly","47pct","62pct","499"
"120219","15:37:27","26","26","4.0.10.0","3","6","EC_Training_N_Warm_L_Competent_Block_2","EC_Training_Trial_L_Competent","1000","0","0","3000","0","0","0","0","1500","0","3","Omeelup","47pct","40pct","499","2","Scientific","47pct","62pct","499"
"120219","15:37:27","26","26","4.0.10.0","3","7","EC_Training_N_Warm_L_Competent_Block_2","EC_Training_Trial_N_Warm","1000","0","0","3000","0","0","0","0","1500","0","3","Lebbunif","47pct","40pct","499","3","Kind","47pct","62pct","499"
"120219","15:37:27","26","26","4.0.10.0","3","8","EC_Training_N_Warm_L_Competent_Block_2","EC_Training_Trial_L_Competent","1000","0","0","3000","0","0","0","0","1500","0","2","Neenolup","47pct","40pct","499","4","Determined","47pct","62pct","499"
"120219","15:37:27","26","26","4.0.10.0","3","9","EC_Training_N_Warm_L_Competent_Block_2","EC_Training_Trial_N_Warm","1000","0","0","3000","0","0","0","0","1500","0","1","Cellanif","47pct","40pct","499","4","Good-natured","47pct","62pct","499"
"120219","15:37:27","26","26","4.0.10.0","3","10","EC_Training_N_Warm_L_Competent_Block_2","EC_Training_Trial_L_Competent","1000","0","0","3000","0","0","0","0","1500","0","1","Maasolup","47pct","40pct","499","1","Smart","47pct","62pct","499"
"120219","15:37:27","26","26","4.0.10.0","3","11","EC_Training_N_Warm_L_Competent_Block_2","EC_Training_Trial_N_Warm","1000","0","0","3000","0","0","0","0","1500","0","4","Zallunif","47pct","40pct","499","2","Helpful","47pct","62pct","499"
"120219","15:37:27","26","26","4.0.10.0","3","12","EC_Training_N_Warm_L_Competent_Block_2","EC_Training_Trial_L_Competent","1000","0","0","3000","0","0","0","0","1500","0","4","Wenaalup","47pct","40pct","499","3","Confident","47pct","62pct","499"
"120219","15:37:27","26","26","4.0.10.0","3","13","EC_Training_N_Warm_L_Competent_Block_2","EC_Training_Trial_N_Warm","1000","0","0","3000","0","0","0","0","1500","0","4","Zallunif","47pct","40pct","499","3","Kind","47pct","62pct","499"
"120219","15:37:27","26","26","4.0.10.0","3","14","EC_Training_N_Warm_L_Competent_Block_2","EC_Training_Trial_L_Competent","1000","0","0","3000","0","0","0","0","1500","0","3","Omeelup","47pct","40pct","499","1","Smart","47pct","62pct","499"
"120219","15:37:27","26","26","4.0.10.0","3","15","EC_Training_N_Warm_L_Competent_Block_2","EC_Training_Trial_N_Warm","1000","0","0","3000","0","0","0","0","1500","0","1","Cellanif","47pct","40pct","499","2","Helpful","47pct","62pct","499"
"120219","15:37:27","26","26","4.0.10.0","3","16","EC_Training_N_Warm_L_Competent_Block_2","EC_Training_Trial_L_Competent","1000","0","0","3000","0","0","0","0","1500","0","1","Maasolup","47pct","40pct","499","4","Determined","47pct","62pct","499"
"120219","15:37:27","26","26","4.0.10.0","3","17","EC_Training_N_Warm_L_Competent_Block_2","EC_Training_Trial_N_Warm","1000","0","0","3000","0","0","0","0","1500","0","2","Eskannif","47pct","40pct","499","1","Friendly","47pct","62pct","499"
"120219","15:37:27","26","26","4.0.10.0","3","18","EC_Training_N_Warm_L_Competent_Block_2","EC_Training_Trial_L_Competent","1000","0","0","3000","0","0","0","0","1500","0","2","Neenolup","47pct","40pct","499","2","Scientific","47pct","62pct","499"
"120219","15:37:27","26","26","4.0.10.0","3","19","EC_Training_N_Warm_L_Competent_Block_2","EC_Training_Trial_N_Warm","1000","0","0","3000","0","0","0","0","1500","0","3","Lebbunif","47pct","40pct","499","4","Good-natured","47pct","62pct","499"
"120219","15:37:27","26","26","4.0.10.0","3","20","EC_Training_N_Warm_L_Competent_Block_2","EC_Training_Trial_L_Competent","1000","0","0","3000","0","0","0","0","1500","0","4","Wenaalup","47pct","40pct","499","3","Confident","47pct","62pct","499"
"120219","15:37:27","26","26","4.0.10.0","4","1","preiat","preiat","0","0","0","0","0","0","next","0","75365","0","1","instIATster.htm","50pct","50pct","138","1","Press here to continue","85pct","50pct","138"
"120219","07:40:19","34","34","4.0.10.0","1","1","Begin1","groups","0","0","0","0","0","0","next","0","14149","0","1","groups.htm","50pct","50pct","400","1","Press here to continue","85pct","50pct","400"
"120219","07:40:19","34","34","4.0.10.0","2","1","EC_Training_N_Warm_L_Competent_Block_1","EC_Training_Trial_L_Competent","1000","0","0","3000","0","0","0","0","1500","0","3","Omeelup","47pct","40pct","499","1","Smart","47pct","62pct","499"
"120219","07:40:19","34","34","4.0.10.0","2","2","EC_Training_N_Warm_L_Competent_Block_1","EC_Training_Trial_N_Warm","1000","0","0","3000","0","0","0","0","1500","0","2","Eskannif","47pct","40pct","499","2","Helpful","47pct","62pct","499"
"120219","07:40:19","34","34","4.0.10.0","2","3","EC_Training_N_Warm_L_Competent_Block_1","EC_Training_Trial_L_Competent","1000","0","0","3000","0","0","0","0","1500","0","4","Wenaalup","47pct","40pct","504","4","Determined","47pct","62pct","504"
"120219","07:40:19","34","34","4.0.10.0","2","4","EC_Training_N_Warm_L_Competent_Block_1","EC_Training_Trial_N_Warm","1000","0","0","3000","0","0","0","0","1500","0","4","Zallunif","47pct","40pct","499","4","Good-natured","47pct","62pct","499"
"120219","07:40:19","34","34","4.0.10.0","2","5","EC_Training_N_Warm_L_Competent_Block_1","EC_Training_Trial_L_Competent","1000","0","0","3000","0","0","0","0","1500","0","1","Maasolup","47pct","40pct","499","2","Scientific","47pct","62pct","499"
"120219","07:40:19","34","34","4.0.10.0","2","6","EC_Training_N_Warm_L_Competent_Block_1","EC_Training_Trial_N_Warm","1000","0","0","3000","0","0","0","0","1500","0","3","Lebbunif","47pct","40pct","499","1","Friendly","47pct","62pct","499"
"120219","07:40:19","34","34","4.0.10.0","2","7","EC_Training_N_Warm_L_Competent_Block_1","EC_Training_Trial_L_Competent","1000","0","0","3000","0","0","0","0","1500","0","2","Neenolup","47pct","40pct","503","3","Confident","47pct","62pct","503"
"120219","07:40:19","34","34","4.0.10.0","2","8","EC_Training_N_Warm_L_Competent_Block_1","EC_Training_Trial_N_Warm","1000","0","0","3000","0","0","0","0","1500","0","1","Cellanif","47pct","40pct","499","3","Kind","47pct","62pct","499"
"120219","07:40:19","34","34","4.0.10.0","2","9","EC_Training_N_Warm_L_Competent_Block_1","EC_Training_Trial_L_Competent","1000","0","0","3000","0","0","0","0","1500","0","1","Maasolup","47pct","40pct","503","4","Determined","47pct","62pct","503"
"120219","07:40:19","34","34","4.0.10.0","2","10","EC_Training_N_Warm_L_Competent_Block_1","EC_Training_Trial_N_Warm","1000","0","0","3000","0","0","0","0","1500","0","3","Lebbunif","47pct","40pct","499","4","Good-natured","47pct","62pct","499"
"120219","07:40:19","34","34","4.0.10.0","2","11","EC_Training_N_Warm_L_Competent_Block_1","EC_Training_Trial_L_Competent","1000","0","0","3000","0","0","0","0","1500","0","2","Neenolup","47pct","40pct","499","2","Scientific","47pct","62pct","499"
"120219","07:40:19","34","34","4.0.10.0","2","12","EC_Training_N_Warm_L_Competent_Block_1","EC_Training_Trial_N_Warm","1000","0","0","3000","0","0","0","0","1500","0","4","Zallunif","47pct","40pct","501","3","Kind","47pct","62pct","501"
"120219","07:40:19","34","34","4.0.10.0","2","13","EC_Training_N_Warm_L_Competent_Block_1","EC_Training_Trial_L_Competent","1000","0","0","3000","0","0","0","0","1500","0","4","Wenaalup","47pct","40pct","504","3","Confident","47pct","62pct","504"
"120219","07:40:19","34","34","4.0.10.0","2","14","EC_Training_N_Warm_L_Competent_Block_1","EC_Training_Trial_N_Warm","1000","0","0","3000","0","0","0","0","1500","0","2","Eskannif","47pct","40pct","499","2","Helpful","47pct","62pct","499"
"120219","07:40:19","34","34","4.0.10.0","2","15","EC_Training_N_Warm_L_Competent_Block_1","EC_Training_Trial_L_Competent","1000","0","0","3000","0","0","0","0","1500","0","3","Omeelup","47pct","40pct","499","1","Smart","47pct","62pct","499"
"120219","07:40:19","34","34","4.0.10.0","2","16","EC_Training_N_Warm_L_Competent_Block_1","EC_Training_Trial_N_Warm","1000","0","0","3000","0","0","0","0","1500","0","1","Cellanif","47pct","40pct","499","1","Friendly","47pct","62pct","499"
"120219","07:40:19","34","34","4.0.10.0","2","17","EC_Training_N_Warm_L_Competent_Block_1","EC_Training_Trial_L_Competent","1000","0","0","3000","0","0","0","0","1500","0","1","Maasolup","47pct","40pct","499","4","Determined","47pct","62pct","499"
"120219","07:40:19","34","34","4.0.10.0","2","18","EC_Training_N_Warm_L_Competent_Block_1","EC_Training_Trial_N_Warm","1000","0","0","3000","0","0","0","0","1500","0","2","Eskannif","47pct","40pct","499","2","Helpful","47pct","62pct","499"
"120219","07:40:19","34","34","4.0.10.0","2","19","EC_Training_N_Warm_L_Competent_Block_1","EC_Training_Trial_L_Competent","1000","0","0","3000","0","0","0","0","1500","0","4","Wenaalup","47pct","40pct","499","2","Scientific","47pct","62pct","499"
"120219","07:40:19","34","34","4.0.10.0","2","20","EC_Training_N_Warm_L_Competent_Block_1","EC_Training_Trial_N_Warm","1000","0","0","3000","0","0","0","0","1500","0","3","Lebbunif","47pct","40pct","505","3","Kind","47pct","62pct","505"
"120219","07:40:19","34","34","4.0.10.0","3","1","EC_Training_N_Warm_L_Competent_Block_2","EC_Training_Trial_L_Competent","1000","0","0","3000","0","0","0","0","1500","0","3","Omeelup","47pct","40pct","499","1","Smart","47pct","62pct","499"
"120219","07:40:19","34","34","4.0.10.0","3","2","EC_Training_N_Warm_L_Competent_Block_2","EC_Training_Trial_N_Warm","1000","0","0","3000","0","0","0","0","1500","0","1","Cellanif","47pct","40pct","499","4","Good-natured","47pct","62pct","499"
"120219","07:40:19","34","34","4.0.10.0","3","3","EC_Training_N_Warm_L_Competent_Block_2","EC_Training_Trial_L_Competent","1000","0","0","3000","0","0","0","0","1500","0","2","Neenolup","47pct","40pct","499","3","Confident","47pct","62pct","499"
"120219","07:40:19","34","34","4.0.10.0","3","4","EC_Training_N_Warm_L_Competent_Block_2","EC_Training_Trial_N_Warm","1000","0","0","3000","0","0","0","0","1500","0","4","Zallunif","47pct","40pct","499","1","Friendly","47pct","62pct","499"
"120219","07:40:19","34","34","4.0.10.0","3","5","EC_Training_N_Warm_L_Competent_Block_2","EC_Training_Trial_L_Competent","1000","0","0","3000","0","0","0","0","1500","0","1","Maasolup","47pct","40pct","500","1","Smart","47pct","62pct","500"
"120219","07:40:19","34","34","4.0.10.0","3","6","EC_Training_N_Warm_L_Competent_Block_2","EC_Training_Trial_N_Warm","1000","0","0","3000","0","0","0","0","1500","0","4","Zallunif","47pct","40pct","501","3","Kind","47pct","62pct","501"
"120219","07:40:19","34","34","4.0.10.0","3","7","EC_Training_N_Warm_L_Competent_Block_2","EC_Training_Trial_L_Competent","1000","0","0","3000","0","0","0","0","1500","0","4","Wenaalup","47pct","40pct","499","3","Confident","47pct","62pct","499"
"120219","07:40:19","34","34","4.0.10.0","3","8","EC_Training_N_Warm_L_Competent_Block_2","EC_Training_Trial_N_Warm","1000","0","0","3000","0","0","0","0","1500","0","3","Lebbunif","47pct","40pct","499","1","Friendly","47pct","62pct","499"
"120219","07:40:19","34","34","4.0.10.0","3","9","EC_Training_N_Warm_L_Competent_Block_2","EC_Training_Trial_L_Competent","1000","0","0","3000","0","0","0","0","1500","0","3","Omeelup","47pct","40pct","499","4","Determined","47pct","62pct","499"
"120219","07:40:19","34","34","4.0.10.0","3","10","EC_Training_N_Warm_L_Competent_Block_2","EC_Training_Trial_N_Warm","1000","0","0","3000","0","0","0","0","1500","0","1","Cellanif","47pct","40pct","499","4","Good-natured","47pct","62pct","499"
"120219","07:40:19","34","34","4.0.10.0","3","11","EC_Training_N_Warm_L_Competent_Block_2","EC_Training_Trial_L_Competent","1000","0","0","3000","0","0","0","0","1500","0","2","Neenolup","47pct","40pct","499","2","Scientific","47pct","62pct","499"
"120219","07:40:19","34","34","4.0.10.0","3","12","EC_Training_N_Warm_L_Competent_Block_2","EC_Training_Trial_N_Warm","1000","0","0","3000","0","0","0","0","1500","0","2","Eskannif","47pct","40pct","509","2","Helpful","47pct","62pct","509"
"120219","07:40:19","34","34","4.0.10.0","3","13","EC_Training_N_Warm_L_Competent_Block_2","EC_Training_Trial_L_Competent","1000","0","0","3000","0","0","0","0","1500","0","3","Omeelup","47pct","40pct","499","4","Determined","47pct","62pct","499"
"120219","07:40:19","34","34","4.0.10.0","3","14","EC_Training_N_Warm_L_Competent_Block_2","EC_Training_Trial_N_Warm","1000","0","0","3000","0","0","0","0","1500","0","3","Lebbunif","47pct","40pct","499","3","Kind","47pct","62pct","499"
"120219","07:40:19","34","34","4.0.10.0","3","15","EC_Training_N_Warm_L_Competent_Block_2","EC_Training_Trial_L_Competent","1000","0","0","3000","0","0","0","0","1500","0","2","Neenolup","47pct","40pct","499","2","Scientific","47pct","62pct","499"
"120219","07:40:19","34","34","4.0.10.0","3","16","EC_Training_N_Warm_L_Competent_Block_2","EC_Training_Trial_N_Warm","1000","0","0","3000","0","0","0","0","1500","0","2","Eskannif","47pct","40pct","499","1","Friendly","47pct","62pct","499"
"120219","07:40:19","34","34","4.0.10.0","3","17","EC_Training_N_Warm_L_Competent_Block_2","EC_Training_Trial_L_Competent","1000","0","0","3000","0","0","0","0","1500","0","4","Wenaalup","47pct","40pct","500","1","Smart","47pct","62pct","500"
"120219","07:40:19","34","34","4.0.10.0","3","18","EC_Training_N_Warm_L_Competent_Block_2","EC_Training_Trial_N_Warm","1000","0","0","3000","0","0","0","0","1500","0","1","Cellanif","47pct","40pct","499","2","Helpful","47pct","62pct","499"
"120219","07:40:19","34","34","4.0.10.0","3","19","EC_Training_N_Warm_L_Competent_Block_2","EC_Training_Trial_L_Competent","1000","0","0","3000","0","0","0","0","1500","0","1","Maasolup","47pct","40pct","499","3","Confident","47pct","62pct","499"
"120219","07:40:19","34","34","4.0.10.0","3","20","EC_Training_N_Warm_L_Competent_Block_2","EC_Training_Trial_N_Warm","1000","0","0","3000","0","0","0","0","1500","0","4","Zallunif","47pct","40pct","499","4","Good-natured","47pct","62pct","499"
"120219","07:40:19","34","34","4.0.10.0","4","1","preiat","preiat","0","0","0","0","0","0","next","0","22250","0","1","instIATster.htm","50pct","50pct","813","1","Press here to continue","85pct","50pct","813"
"120219","10:40:35","33","33","4.0.10.0","1","1","Begin1","groups","0","0","0","0","0","0","next","0","18328","0","1","groups.htm","50pct","50pct","113","1","Press here to continue","85pct","50pct","113"
"120219","10:40:35","33","33","4.0.10.0","2","1","EC_Training_N_Warm_L_Competent_Block_1","EC_Training_Trial_N_Warm","1000","0","0","3000","0","0","0","0","1501","0","3","Lebbunif","47pct","40pct","491","1","Friendly","47pct","62pct","491"
"120219","10:40:35","33","33","4.0.10.0","2","2","EC_Training_N_Warm_L_Competent_Block_1","EC_Training_Trial_L_Competent","1000","0","0","3000","0","0","0","0","1501","0","4","Wenaalup","47pct","40pct","491","3","Confident","47pct","62pct","491"
"120219","10:40:35","33","33","4.0.10.0","2","3","EC_Training_N_Warm_L_Competent_Block_1","EC_Training_Trial_N_Warm","1000","0","0","3000","0","0","0","0","1501","0","2","Eskannif","47pct","40pct","491","2","Helpful","47pct","62pct","491"
"120219","10:40:35","33","33","4.0.10.0","2","4","EC_Training_N_Warm_L_Competent_Block_1","EC_Training_Trial_L_Competent","1000","0","0","3000","0","0","0","0","1501","0","3","Omeelup","47pct","40pct","491","2","Scientific","47pct","62pct","491"
"120219","10:40:35","33","33","4.0.10.0","2","5","EC_Training_N_Warm_L_Competent_Block_1","EC_Training_Trial_N_Warm","1000","0","0","3000","0","0","0","0","1501","0","1","Cellanif","47pct","40pct","491","3","Kind","47pct","62pct","491"
"120219","10:40:35","33","33","4.0.10.0","2","6","EC_Training_N_Warm_L_Competent_Block_1","EC_Training_Trial_L_Competent","1000","0","0","3000","0","0","0","0","1501","0","1","Maasolup","47pct","40pct","491","1","Smart","47pct","62pct","491"
"120219","10:40:35","33","33","4.0.10.0","2","7","EC_Training_N_Warm_L_Competent_Block_1","EC_Training_Trial_N_Warm","1000","0","0","3000","0","0","0","0","1501","0","4","Zallunif","47pct","40pct","491","4","Good-natured","47pct","62pct","491"
"120219","10:40:35","33","33","4.0.10.0","2","8","EC_Training_N_Warm_L_Competent_Block_1","EC_Training_Trial_L_Competent","1000","0","0","3000","0","0","0","0","1501","0","2","Neenolup","47pct","40pct","491","4","Determined","47pct","62pct","491"
"120219","10:40:35","33","33","4.0.10.0","2","9","EC_Training_N_Warm_L_Competent_Block_1","EC_Training_Trial_N_Warm","1000","0","0","3000","0","0","0","0","1501","0","2","Eskannif","47pct","40pct","491","3","Kind","47pct","62pct","491"
"120219","10:40:35","33","33","4.0.10.0","2","10","EC_Training_N_Warm_L_Competent_Block_1","EC_Training_Trial_L_Competent","1000","0","0","3000","0","0","0","0","1501","0","2","Neenolup","47pct","40pct","491","2","Scientific","47pct","62pct","491"
"120219","10:40:35","33","33","4.0.10.0","2","11","EC_Training_N_Warm_L_Competent_Block_1","EC_Training_Trial_N_Warm","1000","0","0","3000","0","0","0","0","1501","0","1","Cellanif","47pct","40pct","491","2","Helpful","47pct","62pct","491"
"120219","10:40:35","33","33","4.0.10.0","2","12","EC_Training_N_Warm_L_Competent_Block_1","EC_Training_Trial_L_Competent","1000","0","0","3000","0","0","0","0","1501","0","3","Omeelup","47pct","40pct","491","1","Smart","47pct","62pct","491"
"120219","10:40:35","33","33","4.0.10.0","2","13","EC_Training_N_Warm_L_Competent_Block_1","EC_Training_Trial_N_Warm","1000","0","0","3000","0","0","0","0","1501","0","3","Lebbunif","47pct","40pct","491","1","Friendly","47pct","62pct","491"
"120219","10:40:35","33","33","4.0.10.0","2","14","EC_Training_N_Warm_L_Competent_Block_1","EC_Training_Trial_L_Competent","1000","0","0","3000","0","0","0","0","1501","0","4","Wenaalup","47pct","40pct","491","4","Determined","47pct","62pct","491"
"120219","10:40:35","33","33","4.0.10.0","2","15","EC_Training_N_Warm_L_Competent_Block_1","EC_Training_Trial_N_Warm","1000","0","0","3000","0","0","0","0","1501","0","4","Zallunif","47pct","40pct","491","4","Good-natured","47pct","62pct","491"
"120219","10:40:35","33","33","4.0.10.0","2","16","EC_Training_N_Warm_L_Competent_Block_1","EC_Training_Trial_L_Competent","1000","0","0","3000","0","0","0","0","1501","0","1","Maasolup","47pct","40pct","491","3","Confident","47pct","62pct","491"
"120219","10:40:35","33","33","4.0.10.0","2","17","EC_Training_N_Warm_L_Competent_Block_1","EC_Training_Trial_N_Warm","1000","0","0","3000","0","0","0","0","1501","0","4","Zallunif","47pct","40pct","491","1","Friendly","47pct","62pct","491"
"120219","10:40:35","33","33","4.0.10.0","2","18","EC_Training_N_Warm_L_Competent_Block_1","EC_Training_Trial_L_Competent","1000","0","0","3000","0","0","0","0","1501","0","2","Neenolup","47pct","40pct","491","4","Determined","47pct","62pct","491"
"120219","10:40:35","33","33","4.0.10.0","2","19","EC_Training_N_Warm_L_Competent_Block_1","EC_Training_Trial_N_Warm","1000","0","0","3000","0","0","0","0","1501","0","2","Eskannif","47pct","40pct","491","3","Kind","47pct","62pct","491"
"120219","10:40:35","33","33","4.0.10.0","2","20","EC_Training_N_Warm_L_Competent_Block_1","EC_Training_Trial_L_Competent","1000","0","0","3000","0","0","0","0","1501","0","1","Maasolup","47pct","40pct","491","1","Smart","47pct","62pct","491"
"120219","10:40:35","33","33","4.0.10.0","3","1","EC_Training_N_Warm_L_Competent_Block_2","EC_Training_Trial_N_Warm","1000","0","0","3000","0","0","0","0","1501","0","1","Cellanif","47pct","40pct","491","4","Good-natured","47pct","62pct","491"
"120219","10:40:35","33","33","4.0.10.0","3","2","EC_Training_N_Warm_L_Competent_Block_2","EC_Training_Trial_L_Competent","1000","0","0","3000","0","0","0","0","1501","0","4","Wenaalup","47pct","40pct","491","3","Confident","47pct","62pct","491"
"120219","10:40:35","33","33","4.0.10.0","3","3","EC_Training_N_Warm_L_Competent_Block_2","EC_Training_Trial_N_Warm","1000","0","0","3000","0","0","0","0","1501","0","3","Lebbunif","47pct","40pct","491","2","Helpful","47pct","62pct","491"
"120219","10:40:35","33","33","4.0.10.0","3","4","EC_Training_N_Warm_L_Competent_Block_2","EC_Training_Trial_L_Competent","1000","0","0","3000","0","0","0","0","1501","0","3","Omeelup","47pct","40pct","491","2","Scientific","47pct","62pct","491"
"120219","10:40:35","33","33","4.0.10.0","3","5","EC_Training_N_Warm_L_Competent_Block_2","EC_Training_Trial_N_Warm","1000","0","0","3000","0","0","0","0","1501","0","2","Eskannif","47pct","40pct","491","2","Helpful","47pct","62pct","491"
"120219","10:40:35","33","33","4.0.10.0","3","6","EC_Training_N_Warm_L_Competent_Block_2","EC_Training_Trial_L_Competent","1000","0","0","3000","0","0","0","0","1501","0","1","Maasolup","47pct","40pct","491","1","Smart","47pct","62pct","491"
"120219","10:40:35","33","33","4.0.10.0","3","7","EC_Training_N_Warm_L_Competent_Block_2","EC_Training_Trial_N_Warm","1000","0","0","3000","0","0","0","0","1501","0","1","Cellanif","47pct","40pct","491","4","Good-natured","47pct","62pct","491"
"120219","10:40:35","33","33","4.0.10.0","3","8","EC_Training_N_Warm_L_Competent_Block_2","EC_Training_Trial_L_Competent","1000","0","0","3000","0","0","0","0","1501","0","2","Neenolup","47pct","40pct","491","2","Scientific","47pct","62pct","491"
"120219","10:40:35","33","33","4.0.10.0","3","9","EC_Training_N_Warm_L_Competent_Block_2","EC_Training_Trial_N_Warm","1000","0","0","3000","0","0","0","0","1501","0","3","Lebbunif","47pct","40pct","491","1","Friendly","47pct","62pct","491"
"120219","10:40:35","33","33","4.0.10.0","3","10","EC_Training_N_Warm_L_Competent_Block_2","EC_Training_Trial_L_Competent","1000","0","0","3000","0","0","0","0","1501","0","3","Omeelup","47pct","40pct","491","4","Determined","47pct","62pct","491"
"120219","10:40:35","33","33","4.0.10.0","3","11","EC_Training_N_Warm_L_Competent_Block_2","EC_Training_Trial_N_Warm","1000","0","0","3000","0","0","0","0","1501","0","4","Zallunif","47pct","40pct","491","3","Kind","47pct","62pct","491"
"120219","10:40:35","33","33","4.0.10.0","3","12","EC_Training_N_Warm_L_Competent_Block_2","EC_Training_Trial_L_Competent","1000","0","0","3000","0","0","0","0","1501","0","4","Wenaalup","47pct","40pct","491","3","Confident","47pct","62pct","491"
"120219","10:40:35","33","33","4.0.10.0","3","13","EC_Training_N_Warm_L_Competent_Block_2","EC_Training_Trial_N_Warm","1000","0","0","3000","0","0","0","0","1501","0","1","Cellanif","47pct","40pct","491","2","Helpful","47pct","62pct","491"
"120219","10:40:35","33","33","4.0.10.0","3","14","EC_Training_N_Warm_L_Competent_Block_2","EC_Training_Trial_L_Competent","1000","0","0","3000","0","0","0","0","1501","0","1","Maasolup","47pct","40pct","491","4","Determined","47pct","62pct","491"
"120219","10:40:35","33","33","4.0.10.0","3","15","EC_Training_N_Warm_L_Competent_Block_2","EC_Training_Trial_N_Warm","1000","0","0","3000","0","0","0","0","1501","0","4","Zallunif","47pct","40pct","491","4","Good-natured","47pct","62pct","491"
"120219","10:40:35","33","33","4.0.10.0","3","16","EC_Training_N_Warm_L_Competent_Block_2","EC_Training_Trial_L_Competent","1000","0","0","3000","0","0","0","0","1501","0","2","Neenolup","47pct","40pct","491","2","Scientific","47pct","62pct","491"
"120219","10:40:35","33","33","4.0.10.0","3","17","EC_Training_N_Warm_L_Competent_Block_2","EC_Training_Trial_N_Warm","1000","0","0","3000","0","0","0","0","1501","0","3","Lebbunif","47pct","40pct","492","3","Kind","47pct","62pct","492"
"120219","10:40:35","33","33","4.0.10.0","3","18","EC_Training_N_Warm_L_Competent_Block_2","EC_Training_Trial_L_Competent","1000","0","0","3000","0","0","0","0","1501","0","4","Wenaalup","47pct","40pct","491","1","Smart","47pct","62pct","491"
"120219","10:40:35","33","33","4.0.10.0","3","19","EC_Training_N_Warm_L_Competent_Block_2","EC_Training_Trial_N_Warm","1000","0","0","3000","0","0","0","0","1501","0","2","Eskannif","47pct","40pct","491","1","Friendly","47pct","62pct","491"
"120219","10:40:35","33","33","4.0.10.0","3","20","EC_Training_N_Warm_L_Competent_Block_2","EC_Training_Trial_L_Competent","1000","0","0","3000","0","0","0","0","1501","0","3","Omeelup","47pct","40pct","491","3","Confident","47pct","62pct","491"
"120219","10:40:35","33","33","4.0.10.0","4","1","preiat","preiat","0","0","0","0","0","0","next","0","31265","0","1","instIATster.htm","50pct","50pct","429","1","Press here to continue","85pct","50pct","429"
"120219","09:38:09","28","28","4.0.10.0","1","1","Begin1","groups","0","0","0","0","0","0","next","0","10854","0","1","groups.htm","50pct","50pct","360","1","Press here to continue","85pct","50pct","360"
"120219","09:38:09","28","28","4.0.10.0","2","1","EC_Training_N_Warm_L_Competent_Block_1","EC_Training_Trial_N_Warm","1000","0","0","3000","0","0","0","0","1501","0","3","Lebbunif","47pct","40pct","491","2","Helpful","47pct","62pct","491"
"120219","09:38:09","28","28","4.0.10.0","2","2","EC_Training_N_Warm_L_Competent_Block_1","EC_Training_Trial_L_Competent","1000","0","0","3000","0","0","0","0","1501","0","4","Wenaalup","47pct","40pct","491","3","Confident","47pct","62pct","491"
"120219","09:38:09","28","28","4.0.10.0","2","3","EC_Training_N_Warm_L_Competent_Block_1","EC_Training_Trial_N_Warm","1000","0","0","3000","0","0","0","0","1501","0","2","Eskannif","47pct","40pct","491","4","Good-natured","47pct","62pct","491"
"120219","09:38:09","28","28","4.0.10.0","2","4","EC_Training_N_Warm_L_Competent_Block_1","EC_Training_Trial_L_Competent","1000","0","0","3000","0","0","0","0","1501","0","1","Maasolup","47pct","40pct","491","4","Determined","47pct","62pct","491"
"120219","09:38:09","28","28","4.0.10.0","2","5","EC_Training_N_Warm_L_Competent_Block_1","EC_Training_Trial_N_Warm","1000","0","0","3000","0","0","0","0","1501","0","1","Cellanif","47pct","40pct","491","3","Kind","47pct","62pct","491"
"120219","09:38:09","28","28","4.0.10.0","2","6","EC_Training_N_Warm_L_Competent_Block_1","EC_Training_Trial_L_Competent","1000","0","0","3000","0","0","0","0","1501","0","2","Neenolup","47pct","40pct","491","1","Smart","47pct","62pct","491"
"120219","09:38:09","28","28","4.0.10.0","2","7","EC_Training_N_Warm_L_Competent_Block_1","EC_Training_Trial_N_Warm","1000","0","0","3000","0","0","0","0","1501","0","4","Zallunif","47pct","40pct","491","1","Friendly","47pct","62pct","491"
"120219","09:38:09","28","28","4.0.10.0","2","8","EC_Training_N_Warm_L_Competent_Block_1","EC_Training_Trial_L_Competent","1000","0","0","3000","0","0","0","0","1501","0","3","Omeelup","47pct","40pct","491","2","Scientific","47pct","62pct","491"
"120219","09:38:09","28","28","4.0.10.0","2","9","EC_Training_N_Warm_L_Competent_Block_1","EC_Training_Trial_N_Warm","1000","0","0","3000","0","0","0","0","1501","0","4","Zallunif","47pct","40pct","491","1","Friendly","47pct","62pct","491"
"120219","09:38:09","28","28","4.0.10.0","2","10","EC_Training_N_Warm_L_Competent_Block_1","EC_Training_Trial_L_Competent","1000","0","0","3000","0","0","0","0","1501","0","1","Maasolup","47pct","40pct","491","4","Determined","47pct","62pct","491"
"120219","09:38:09","28","28","4.0.10.0","2","11","EC_Training_N_Warm_L_Competent_Block_1","EC_Training_Trial_N_Warm","1000","0","0","3000","0","0","0","0","1501","0","1","Cellanif","47pct","40pct","491","4","Good-natured","47pct","62pct","491"
"120219","09:38:09","28","28","4.0.10.0","2","12","EC_Training_N_Warm_L_Competent_Block_1","EC_Training_Trial_L_Competent","1000","0","0","3000","0","0","0","0","1501","0","2","Neenolup","47pct","40pct","491","2","Scientific","47pct","62pct","491"
"120219","09:38:09","28","28","4.0.10.0","2","13","EC_Training_N_Warm_L_Competent_Block_1","EC_Training_Trial_N_Warm","1000","0","0","3000","0","0","0","0","1501","0","2","Eskannif","47pct","40pct","491","3","Kind","47pct","62pct","491"
"120219","09:38:09","28","28","4.0.10.0","2","14","EC_Training_N_Warm_L_Competent_Block_1","EC_Training_Trial_L_Competent","1000","0","0","3000","0","0","0","0","1501","0","3","Omeelup","47pct","40pct","491","3","Confident","47pct","62pct","491"
"120219","09:38:09","28","28","4.0.10.0","2","15","EC_Training_N_Warm_L_Competent_Block_1","EC_Training_Trial_N_Warm","1000","0","0","3000","0","0","0","0","1501","0","3","Lebbunif","47pct","40pct","491","2","Helpful","47pct","62pct","491"
"120219","09:38:09","28","28","4.0.10.0","2","16","EC_Training_N_Warm_L_Competent_Block_1","EC_Training_Trial_L_Competent","1000","0","0","3000","0","0","0","0","1501","0","4","Wenaalup","47pct","40pct","491","1","Smart","47pct","62pct","491"
"120219","09:38:09","28","28","4.0.10.0","2","17","EC_Training_N_Warm_L_Competent_Block_1","EC_Training_Trial_N_Warm","1000","0","0","3000","0","0","0","0","1501","0","4","Zallunif","47pct","40pct","491","4","Good-natured","47pct","62pct","491"
"120219","09:38:09","28","28","4.0.10.0","2","18","EC_Training_N_Warm_L_Competent_Block_1","EC_Training_Trial_L_Competent","1000","0","0","3000","0","0","0","0","1501","0","4","Wenaalup","47pct","40pct","491","4","Determined","47pct","62pct","491"
"120219","09:38:09","28","28","4.0.10.0","2","19","EC_Training_N_Warm_L_Competent_Block_1","EC_Training_Trial_N_Warm","1000","0","0","3000","0","0","0","0","1501","0","2","Eskannif","47pct","40pct","491","3","Kind","47pct","62pct","491"
"120219","09:38:09","28","28","4.0.10.0","2","20","EC_Training_N_Warm_L_Competent_Block_1","EC_Training_Trial_L_Competent","1000","0","0","3000","0","0","0","0","1501","0","3","Omeelup","47pct","40pct","491","2","Scientific","47pct","62pct","491"
"120219","09:38:09","28","28","4.0.10.0","3","1","EC_Training_N_Warm_L_Competent_Block_2","EC_Training_Trial_N_Warm","1000","0","0","3000","0","0","0","0","1501","0","3","Lebbunif","47pct","40pct","491","2","Helpful","47pct","62pct","491"
"120219","09:38:09","28","28","4.0.10.0","3","2","EC_Training_N_Warm_L_Competent_Block_2","EC_Training_Trial_L_Competent","1000","0","0","3000","0","0","0","0","1501","0","2","Neenolup","47pct","40pct","491","1","Smart","47pct","62pct","491"
"120219","09:38:09","28","28","4.0.10.0","3","3","EC_Training_N_Warm_L_Competent_Block_2","EC_Training_Trial_N_Warm","1000","0","0","3000","0","0","0","0","1501","0","1","Cellanif","47pct","40pct","491","1","Friendly","47pct","62pct","491"
"120219","09:38:09","28","28","4.0.10.0","3","4","EC_Training_N_Warm_L_Competent_Block_2","EC_Training_Trial_L_Competent","1000","0","0","3000","0","0","0","0","1501","0","1","Maasolup","47pct","40pct","491","3","Confident","47pct","62pct","491"
"120219","09:38:09","28","28","4.0.10.0","3","5","EC_Training_N_Warm_L_Competent_Block_2","EC_Training_Trial_N_Warm","1000","0","0","3000","0","0","0","0","1501","0","2","Eskannif","47pct","40pct","491","3","Kind","47pct","62pct","491"
"120219","09:38:09","28","28","4.0.10.0","3","6","EC_Training_N_Warm_L_Competent_Block_2","EC_Training_Trial_L_Competent","1000","0","0","3000","0","0","0","0","1501","0","4","Wenaalup","47pct","40pct","491","4","Determined","47pct","62pct","491"
"120219","09:38:09","28","28","4.0.10.0","3","7","EC_Training_N_Warm_L_Competent_Block_2","EC_Training_Trial_N_Warm","1000","0","0","3000","0","0","0","0","1501","0","3","Lebbunif","47pct","40pct","491","1","Friendly","47pct","62pct","491"
"120219","09:38:09","28","28","4.0.10.0","3","8","EC_Training_N_Warm_L_Competent_Block_2","EC_Training_Trial_L_Competent","1000","0","0","3000","0","0","0","0","1501","0","3","Omeelup","47pct","40pct","491","2","Scientific","47pct","62pct","491"
"120219","09:38:09","28","28","4.0.10.0","3","9","EC_Training_N_Warm_L_Competent_Block_2","EC_Training_Trial_N_Warm","1000","0","0","3000","0","0","0","0","1501","0","1","Cellanif","47pct","40pct","491","2","Helpful","47pct","62pct","491"
"120219","09:38:09","28","28","4.0.10.0","3","10","EC_Training_N_Warm_L_Competent_Block_2","EC_Training_Trial_L_Competent","1000","0","0","3000","0","0","0","0","1501","0","1","Maasolup","47pct","40pct","491","1","Smart","47pct","62pct","491"
"120219","09:38:09","28","28","4.0.10.0","3","11","EC_Training_N_Warm_L_Competent_Block_2","EC_Training_Trial_N_Warm","1000","0","0","3000","0","0","0","0","1501","0","4","Zallunif","47pct","40pct","491","4","Good-natured","47pct","62pct","491"
"120219","09:38:09","28","28","4.0.10.0","3","12","EC_Training_N_Warm_L_Competent_Block_2","EC_Training_Trial_L_Competent","1000","0","0","3000","0","0","0","0","1501","0","2","Neenolup","47pct","40pct","491","3","Confident","47pct","62pct","491"
"120219","09:38:09","28","28","4.0.10.0","3","13","EC_Training_N_Warm_L_Competent_Block_2","EC_Training_Trial_N_Warm","1000","0","0","3000","0","0","0","0","1501","0","3","Lebbunif","47pct","40pct","491","2","Helpful","47pct","62pct","491"
"120219","09:38:09","28","28","4.0.10.0","3","14","EC_Training_N_Warm_L_Competent_Block_2","EC_Training_Trial_L_Competent","1000","0","0","3000","0","0","0","0","1501","0","2","Neenolup","47pct","40pct","491","2","Scientific","47pct","62pct","491"
"120219","09:38:09","28","28","4.0.10.0","3","15","EC_Training_N_Warm_L_Competent_Block_2","EC_Training_Trial_N_Warm","1000","0","0","3000","0","0","0","0","1501","0","1","Cellanif","47pct","40pct","491","3","Kind","47pct","62pct","491"
"120219","09:38:09","28","28","4.0.10.0","3","16","EC_Training_N_Warm_L_Competent_Block_2","EC_Training_Trial_L_Competent","1000","0","0","3000","0","0","0","0","1501","0","1","Maasolup","47pct","40pct","491","4","Determined","47pct","62pct","491"
"120219","09:38:09","28","28","4.0.10.0","3","17","EC_Training_N_Warm_L_Competent_Block_2","EC_Training_Trial_N_Warm","1000","0","0","3000","0","0","0","0","1501","0","2","Eskannif","47pct","40pct","491","4","Good-natured","47pct","62pct","491"
"120219","09:38:09","28","28","4.0.10.0","3","18","EC_Training_N_Warm_L_Competent_Block_2","EC_Training_Trial_L_Competent","1000","0","0","3000","0","0","0","0","1501","0","3","Omeelup","47pct","40pct","491","1","Smart","47pct","62pct","491"
"120219","09:38:09","28","28","4.0.10.0","3","19","EC_Training_N_Warm_L_Competent_Block_2","EC_Training_Trial_N_Warm","1000","0","0","3000","0","0","0","0","1501","0","4","Zallunif","47pct","40pct","491","1","Friendly","47pct","62pct","491"
"120219","09:38:09","28","28","4.0.10.0","3","20","EC_Training_N_Warm_L_Competent_Block_2","EC_Training_Trial_L_Competent","1000","0","0","3000","0","0","0","0","1501","0","4","Wenaalup","47pct","40pct","491","3","Confident","47pct","62pct","491"
"120219","09:38:09","28","28","4.0.10.0","4","1","preiat","preiat","0","0","0","0","0","0","next","0","21946","0","1","instIATster.htm","50pct","50pct","1383","1","Press here to continue","85pct","50pct","1383"
"120219","15:42:13","36","36","4.0.10.0","1","1","Begin1","groups","0","0","0","0","0","0","next","0","21649","0","1","groups.htm","50pct","50pct","226","1","Press here to continue","85pct","50pct","226"
"120219","15:42:13","36","36","4.0.10.0","2","1","EC_Training_N_Warm_L_Competent_Block_1","EC_Training_Trial_N_Warm","1000","0","0","3000","0","0","0","0","1500","0","3","Lebbunif","47pct","40pct","499","2","Helpful","47pct","62pct","499"
"120219","15:42:13","36","36","4.0.10.0","2","2","EC_Training_N_Warm_L_Competent_Block_1","EC_Training_Trial_L_Competent","1000","0","0","3000","0","0","0","0","1500","0","2","Neenolup","47pct","40pct","501","3","Confident","47pct","62pct","501"
"120219","15:42:13","36","36","4.0.10.0","2","3","EC_Training_N_Warm_L_Competent_Block_1","EC_Training_Trial_N_Warm","1000","0","0","3000","0","0","0","0","1500","0","1","Cellanif","47pct","40pct","500","4","Good-natured","47pct","62pct","500"
"120219","15:42:13","36","36","4.0.10.0","2","4","EC_Training_N_Warm_L_Competent_Block_1","EC_Training_Trial_L_Competent","1000","0","0","3000","0","0","0","0","1500","0","3","Omeelup","47pct","40pct","499","2","Scientific","47pct","62pct","499"
"120219","15:42:13","36","36","4.0.10.0","2","5","EC_Training_N_Warm_L_Competent_Block_1","EC_Training_Trial_N_Warm","1000","0","0","3000","0","0","0","0","1500","0","2","Eskannif","47pct","40pct","500","3","Kind","47pct","62pct","500"
"120219","15:42:13","36","36","4.0.10.0","2","6","EC_Training_N_Warm_L_Competent_Block_1","EC_Training_Trial_L_Competent","1000","0","0","3000","0","0","0","0","1500","0","1","Maasolup","47pct","40pct","501","4","Determined","47pct","62pct","501"
"120219","15:42:13","36","36","4.0.10.0","2","7","EC_Training_N_Warm_L_Competent_Block_1","EC_Training_Trial_N_Warm","1000","0","0","3000","0","0","0","0","1500","0","4","Zallunif","47pct","40pct","501","1","Friendly","47pct","62pct","501"
"120219","15:42:13","36","36","4.0.10.0","2","8","EC_Training_N_Warm_L_Competent_Block_1","EC_Training_Trial_L_Competent","1000","0","0","3000","0","0","0","0","1500","0","4","Wenaalup","47pct","40pct","499","1","Smart","47pct","62pct","499"
"120219","15:42:13","36","36","4.0.10.0","2","9","EC_Training_N_Warm_L_Competent_Block_1","EC_Training_Trial_N_Warm","1000","0","0","3000","0","0","0","0","1500","0","1","Cellanif","47pct","40pct","499","4","Good-natured","47pct","62pct","499"
"120219","15:42:13","36","36","4.0.10.0","2","10","EC_Training_N_Warm_L_Competent_Block_1","EC_Training_Trial_L_Competent","1000","0","0","3000","0","0","0","0","1500","0","2","Neenolup","47pct","40pct","499","4","Determined","47pct","62pct","499"
"120219","15:42:13","36","36","4.0.10.0","2","11","EC_Training_N_Warm_L_Competent_Block_1","EC_Training_Trial_N_Warm","1000","0","0","3000","0","0","0","0","1500","0","4","Zallunif","47pct","40pct","499","3","Kind","47pct","62pct","499"
"120219","15:42:13","36","36","4.0.10.0","2","12","EC_Training_N_Warm_L_Competent_Block_1","EC_Training_Trial_L_Competent","1000","0","0","3000","0","0","0","0","1500","0","1","Maasolup","47pct","40pct","499","1","Smart","47pct","62pct","499"
"120219","15:42:13","36","36","4.0.10.0","2","13","EC_Training_N_Warm_L_Competent_Block_1","EC_Training_Trial_N_Warm","1000","0","0","3000","0","0","0","0","1500","0","2","Eskannif","47pct","40pct","500","1","Friendly","47pct","62pct","500"
"120219","15:42:13","36","36","4.0.10.0","2","14","EC_Training_N_Warm_L_Competent_Block_1","EC_Training_Trial_L_Competent","1000","0","0","3000","0","0","0","0","1500","0","4","Wenaalup","47pct","40pct","499","3","Confident","47pct","62pct","499"
"120219","15:42:13","36","36","4.0.10.0","2","15","EC_Training_N_Warm_L_Competent_Block_1","EC_Training_Trial_N_Warm","1000","0","0","3000","0","0","0","0","1500","0","3","Lebbunif","47pct","40pct","499","2","Helpful","47pct","62pct","499"
"120219","15:42:13","36","36","4.0.10.0","2","16","EC_Training_N_Warm_L_Competent_Block_1","EC_Training_Trial_L_Competent","1000","0","0","3000","0","0","0","0","1500","0","3","Omeelup","47pct","40pct","500","2","Scientific","47pct","62pct","500"
"120219","15:42:13","36","36","4.0.10.0","2","17","EC_Training_N_Warm_L_Competent_Block_1","EC_Training_Trial_N_Warm","1000","0","0","3000","0","0","0","0","1500","0","4","Zallunif","47pct","40pct","505","1","Friendly","47pct","62pct","505"
"120219","15:42:13","36","36","4.0.10.0","2","18","EC_Training_N_Warm_L_Competent_Block_1","EC_Training_Trial_L_Competent","1000","0","0","3000","0","0","0","0","1500","0","4","Wenaalup","47pct","40pct","504","2","Scientific","47pct","62pct","504"
"120219","15:42:13","36","36","4.0.10.0","2","19","EC_Training_N_Warm_L_Competent_Block_1","EC_Training_Trial_N_Warm","1000","0","0","3000","0","0","0","0","1500","0","3","Lebbunif","47pct","40pct","522","4","Good-natured","47pct","62pct","522"
"120219","15:42:13","36","36","4.0.10.0","2","20","EC_Training_N_Warm_L_Competent_Block_1","EC_Training_Trial_L_Competent","1000","0","0","3000","0","0","0","0","1500","0","2","Neenolup","47pct","40pct","501","3","Confident","47pct","62pct","501"
"120219","15:42:13","36","36","4.0.10.0","3","1","EC_Training_N_Warm_L_Competent_Block_2","EC_Training_Trial_N_Warm","1000","0","0","3000","0","0","0","0","1500","0","2","Eskannif","47pct","40pct","500","3","Kind","47pct","62pct","500"
"120219","15:42:13","36","36","4.0.10.0","3","2","EC_Training_N_Warm_L_Competent_Block_2","EC_Training_Trial_L_Competent","1000","0","0","3000","0","0","0","0","1500","0","1","Maasolup","47pct","40pct","515","4","Determined","47pct","62pct","515"
"120219","15:42:13","36","36","4.0.10.0","3","3","EC_Training_N_Warm_L_Competent_Block_2","EC_Training_Trial_N_Warm","1000","0","0","3000","0","0","0","0","1500","0","1","Cellanif","47pct","40pct","521","2","Helpful","47pct","62pct","521"
"120219","15:42:13","36","36","4.0.10.0","3","4","EC_Training_N_Warm_L_Competent_Block_2","EC_Training_Trial_L_Competent","1000","0","0","3000","0","0","0","0","1500","0","3","Omeelup","47pct","40pct","500","1","Smart","47pct","62pct","500"
"120219","15:42:13","36","36","4.0.10.0","3","5","EC_Training_N_Warm_L_Competent_Block_2","EC_Training_Trial_N_Warm","1000","0","0","3000","0","0","0","0","1500","0","2","Eskannif","47pct","40pct","500","4","Good-natured","47pct","62pct","500"
"120219","15:42:13","36","36","4.0.10.0","3","6","EC_Training_N_Warm_L_Competent_Block_2","EC_Training_Trial_L_Competent","1000","0","0","3000","0","0","0","0","1500","0","3","Omeelup","47pct","40pct","501","4","Determined","47pct","62pct","501"
"120219","15:42:13","36","36","4.0.10.0","3","7","EC_Training_N_Warm_L_Competent_Block_2","EC_Training_Trial_N_Warm","1000","0","0","3000","0","0","0","0","1500","0","3","Lebbunif","47pct","40pct","500","2","Helpful","47pct","62pct","500"
"120219","15:42:13","36","36","4.0.10.0","3","8","EC_Training_N_Warm_L_Competent_Block_2","EC_Training_Trial_L_Competent","1000","0","0","3000","0","0","0","0","1500","0","1","Maasolup","47pct","40pct","500","2","Scientific","47pct","62pct","500"
"120219","15:42:13","36","36","4.0.10.0","3","9","EC_Training_N_Warm_L_Competent_Block_2","EC_Training_Trial_N_Warm","1000","0","0","3000","0","0","0","0","1500","0","1","Cellanif","47pct","40pct","501","3","Kind","47pct","62pct","501"
"120219","15:42:13","36","36","4.0.10.0","3","10","EC_Training_N_Warm_L_Competent_Block_2","EC_Training_Trial_L_Competent","1000","0","0","3000","0","0","0","0","1500","0","2","Neenolup","47pct","40pct","501","3","Confident","47pct","62pct","501"
"120219","15:42:13","36","36","4.0.10.0","3","11","EC_Training_N_Warm_L_Competent_Block_2","EC_Training_Trial_N_Warm","1000","0","0","3000","0","0","0","0","1500","0","4","Zallunif","47pct","40pct","503","1","Friendly","47pct","62pct","503"
"120219","15:42:13","36","36","4.0.10.0","3","12","EC_Training_N_Warm_L_Competent_Block_2","EC_Training_Trial_L_Competent","1000","0","0","3000","0","0","0","0","1500","0","4","Wenaalup","47pct","40pct","500","1","Smart","47pct","62pct","500"
"120219","15:42:13","36","36","4.0.10.0","3","13","EC_Training_N_Warm_L_Competent_Block_2","EC_Training_Trial_N_Warm","1000","0","0","3000","0","0","0","0","1500","0","2","Eskannif","47pct","40pct","500","3","Kind","47pct","62pct","500"
"120219","15:42:13","36","36","4.0.10.0","3","14","EC_Training_N_Warm_L_Competent_Block_2","EC_Training_Trial_L_Competent","1000","0","0","3000","0","0","0","0","1500","0","4","Wenaalup","47pct","40pct","501","1","Smart","47pct","62pct","501"
"120219","15:42:13","36","36","4.0.10.0","3","15","EC_Training_N_Warm_L_Competent_Block_2","EC_Training_Trial_N_Warm","1000","0","0","3000","0","0","0","0","1500","0","1","Cellanif","47pct","40pct","500","1","Friendly","47pct","62pct","500"
"120219","15:42:13","36","36","4.0.10.0","3","16","EC_Training_N_Warm_L_Competent_Block_2","EC_Training_Trial_L_Competent","1000","0","0","3000","0","0","0","0","1500","0","3","Omeelup","47pct","40pct","499","3","Confident","47pct","62pct","499"
"120219","15:42:13","36","36","4.0.10.0","3","17","EC_Training_N_Warm_L_Competent_Block_2","EC_Training_Trial_N_Warm","1000","0","0","3000","0","0","0","0","1500","0","3","Lebbunif","47pct","40pct","500","2","Helpful","47pct","62pct","500"
"120219","15:42:13","36","36","4.0.10.0","3","18","EC_Training_N_Warm_L_Competent_Block_2","EC_Training_Trial_L_Competent","1000","0","0","3000","0","0","0","0","1500","0","2","Neenolup","47pct","40pct","499","4","Determined","47pct","62pct","499"
"120219","15:42:13","36","36","4.0.10.0","3","19","EC_Training_N_Warm_L_Competent_Block_2","EC_Training_Trial_N_Warm","1000","0","0","3000","0","0","0","0","1500","0","4","Zallunif","47pct","40pct","500","4","Good-natured","47pct","62pct","500"
"120219","15:42:13","36","36","4.0.10.0","3","20","EC_Training_N_Warm_L_Competent_Block_2","EC_Training_Trial_L_Competent","1000","0","0","3000","0","0","0","0","1500","0","1","Maasolup","47pct","40pct","500","2","Scientific","47pct","62pct","500"
"120219","15:42:13","36","36","4.0.10.0","4","1","preiat","preiat","0","0","0","0","0","0","next","0","46949","0","1","instIATster.htm","50pct","50pct","511","1","Press here to continue","85pct","50pct","511"
"120219","10:40:11","19","19","4.0.10.0","1","1","Begin1","groups","0","0","0","0","0","0","next","0","231150","0","1","groups.htm","50pct","50pct","116","1","Press here to continue","85pct","50pct","116"
"120219","10:40:11","19","19","4.0.10.0","2","1","EC_Training_N_Warm_L_Competent_Block_1","EC_Training_Trial_L_Competent","1000","0","0","3000","0","0","0","0","1501","0","3","Omeelup","47pct","40pct","491","2","Scientific","47pct","62pct","491"
"120219","10:40:11","19","19","4.0.10.0","2","2","EC_Training_N_Warm_L_Competent_Block_1","EC_Training_Trial_N_Warm","1000","0","0","3000","0","0","0","0","1501","0","3","Lebbunif","47pct","40pct","491","3","Kind","47pct","62pct","491"
"120219","10:40:11","19","19","4.0.10.0","2","3","EC_Training_N_Warm_L_Competent_Block_1","EC_Training_Trial_L_Competent","1000","0","0","3000","0","0","0","0","1501","0","1","Maasolup","47pct","40pct","491","4","Determined","47pct","62pct","491"
"120219","10:40:11","19","19","4.0.10.0","2","4","EC_Training_N_Warm_L_Competent_Block_1","EC_Training_Trial_N_Warm","1000","0","0","3000","0","0","0","0","1501","0","2","Eskannif","47pct","40pct","491","1","Friendly","47pct","62pct","491"
"120219","10:40:11","19","19","4.0.10.0","2","5","EC_Training_N_Warm_L_Competent_Block_1","EC_Training_Trial_L_Competent","1000","0","0","3000","0","0","0","0","1501","0","4","Wenaalup","47pct","40pct","491","3","Confident","47pct","62pct","491"
"120219","10:40:11","19","19","4.0.10.0","2","6","EC_Training_N_Warm_L_Competent_Block_1","EC_Training_Trial_N_Warm","1000","0","0","3000","0","0","0","0","1501","0","1","Cellanif","47pct","40pct","491","2","Helpful","47pct","62pct","491"
"120219","10:40:11","19","19","4.0.10.0","2","7","EC_Training_N_Warm_L_Competent_Block_1","EC_Training_Trial_L_Competent","1000","0","0","3000","0","0","0","0","1501","0","2","Neenolup","47pct","40pct","491","1","Smart","47pct","62pct","491"
"120219","10:40:11","19","19","4.0.10.0","2","8","EC_Training_N_Warm_L_Competent_Block_1","EC_Training_Trial_N_Warm","1000","0","0","3000","0","0","0","0","1501","0","4","Zallunif","47pct","40pct","491","4","Good-natured","47pct","62pct","491"
"120219","10:40:11","19","19","4.0.10.0","2","9","EC_Training_N_Warm_L_Competent_Block_1","EC_Training_Trial_L_Competent","1000","0","0","3000","0","0","0","0","1501","0","1","Maasolup","47pct","40pct","491","1","Smart","47pct","62pct","491"
"120219","10:40:11","19","19","4.0.10.0","2","10","EC_Training_N_Warm_L_Competent_Block_1","EC_Training_Trial_N_Warm","1000","0","0","3000","0","0","0","0","1501","0","2","Eskannif","47pct","40pct","491","1","Friendly","47pct","62pct","491"
"120219","10:40:11","19","19","4.0.10.0","2","11","EC_Training_N_Warm_L_Competent_Block_1","EC_Training_Trial_L_Competent","1000","0","0","3000","0","0","0","0","1501","0","3","Omeelup","47pct","40pct","491","4","Determined","47pct","62pct","491"
"120219","10:40:11","19","19","4.0.10.0","2","12","EC_Training_N_Warm_L_Competent_Block_1","EC_Training_Trial_N_Warm","1000","0","0","3000","0","0","0","0","1501","0","3","Lebbunif","47pct","40pct","491","3","Kind","47pct","62pct","491"
"120219","10:40:11","19","19","4.0.10.0","2","13","EC_Training_N_Warm_L_Competent_Block_1","EC_Training_Trial_L_Competent","1000","0","0","3000","0","0","0","0","1501","0","4","Wenaalup","47pct","40pct","491","2","Scientific","47pct","62pct","491"
"120219","10:40:11","19","19","4.0.10.0","2","14","EC_Training_N_Warm_L_Competent_Block_1","EC_Training_Trial_N_Warm","1000","0","0","3000","0","0","0","0","1501","0","4","Zallunif","47pct","40pct","491","4","Good-natured","47pct","62pct","491"
"120219","10:40:11","19","19","4.0.10.0","2","15","EC_Training_N_Warm_L_Competent_Block_1","EC_Training_Trial_L_Competent","1000","0","0","3000","0","0","0","0","1501","0","2","Neenolup","47pct","40pct","491","3","Confident","47pct","62pct","491"
"120219","10:40:11","19","19","4.0.10.0","2","16","EC_Training_N_Warm_L_Competent_Block_1","EC_Training_Trial_N_Warm","1000","0","0","3000","0","0","0","0","1501","0","1","Cellanif","47pct","40pct","491","2","Helpful","47pct","62pct","491"
"120219","10:40:11","19","19","4.0.10.0","2","17","EC_Training_N_Warm_L_Competent_Block_1","EC_Training_Trial_L_Competent","1000","0","0","3000","0","0","0","0","1501","0","2","Neenolup","47pct","40pct","491","3","Confident","47pct","62pct","491"
"120219","10:40:11","19","19","4.0.10.0","2","18","EC_Training_N_Warm_L_Competent_Block_1","EC_Training_Trial_N_Warm","1000","0","0","3000","0","0","0","0","1501","0","4","Zallunif","47pct","40pct","491","3","Kind","47pct","62pct","491"
"120219","10:40:11","19","19","4.0.10.0","2","19","EC_Training_N_Warm_L_Competent_Block_1","EC_Training_Trial_L_Competent","1000","0","0","3000","0","0","0","0","1501","0","3","Omeelup","47pct","40pct","491","4","Determined","47pct","62pct","491"
"120219","10:40:11","19","19","4.0.10.0","2","20","EC_Training_N_Warm_L_Competent_Block_1","EC_Training_Trial_N_Warm","1000","0","0","3000","0","0","0","0","1501","0","1","Cellanif","47pct","40pct","491","2","Helpful","47pct","62pct","491"
"120219","10:40:11","19","19","4.0.10.0","3","1","EC_Training_N_Warm_L_Competent_Block_2","EC_Training_Trial_L_Competent","1000","0","0","3000","0","0","0","0","1501","0","4","Wenaalup","47pct","40pct","491","1","Smart","47pct","62pct","491"
"120219","10:40:11","19","19","4.0.10.0","3","2","EC_Training_N_Warm_L_Competent_Block_2","EC_Training_Trial_N_Warm","1000","0","0","3000","0","0","0","0","1501","0","2","Eskannif","47pct","40pct","491","4","Good-natured","47pct","62pct","491"
"120219","10:40:11","19","19","4.0.10.0","3","3","EC_Training_N_Warm_L_Competent_Block_2","EC_Training_Trial_L_Competent","1000","0","0","3000","0","0","0","0","1501","0","1","Maasolup","47pct","40pct","491","2","Scientific","47pct","62pct","491"
"120219","10:40:11","19","19","4.0.10.0","3","4","EC_Training_N_Warm_L_Competent_Block_2","EC_Training_Trial_N_Warm","1000","0","0","3000","0","0","0","0","1501","0","3","Lebbunif","47pct","40pct","491","1","Friendly","47pct","62pct","491"
"120219","10:40:11","19","19","4.0.10.0","3","5","EC_Training_N_Warm_L_Competent_Block_2","EC_Training_Trial_L_Competent","1000","0","0","3000","0","0","0","0","1501","0","1","Maasolup","47pct","40pct","491","1","Smart","47pct","62pct","491"
"120219","10:40:11","19","19","4.0.10.0","3","6","EC_Training_N_Warm_L_Competent_Block_2","EC_Training_Trial_N_Warm","1000","0","0","3000","0","0","0","0","1501","0","3","Lebbunif","47pct","40pct","491","1","Friendly","47pct","62pct","491"
"120219","10:40:11","19","19","4.0.10.0","3","7","EC_Training_N_Warm_L_Competent_Block_2","EC_Training_Trial_L_Competent","1000","0","0","3000","0","0","0","0","1501","0","2","Neenolup","47pct","40pct","491","3","Confident","47pct","62pct","491"
"120219","10:40:11","19","19","4.0.10.0","3","8","EC_Training_N_Warm_L_Competent_Block_2","EC_Training_Trial_N_Warm","1000","0","0","3000","0","0","0","0","1501","0","1","Cellanif","47pct","40pct","491","3","Kind","47pct","62pct","491"
"120219","10:40:11","19","19","4.0.10.0","3","9","EC_Training_N_Warm_L_Competent_Block_2","EC_Training_Trial_L_Competent","1000","0","0","3000","0","0","0","0","1501","0","3","Omeelup","47pct","40pct","491","4","Determined","47pct","62pct","491"
"120219","10:40:11","19","19","4.0.10.0","3","10","EC_Training_N_Warm_L_Competent_Block_2","EC_Training_Trial_N_Warm","1000","0","0","3000","0","0","0","0","1501","0","4","Zallunif","47pct","40pct","491","4","Good-natured","47pct","62pct","491"
"120219","10:40:11","19","19","4.0.10.0","3","11","EC_Training_N_Warm_L_Competent_Block_2","EC_Training_Trial_L_Competent","1000","0","0","3000","0","0","0","0","1501","0","4","Wenaalup","47pct","40pct","491","2","Scientific","47pct","62pct","491"
"120219","10:40:11","19","19","4.0.10.0","3","12","EC_Training_N_Warm_L_Competent_Block_2","EC_Training_Trial_N_Warm","1000","0","0","3000","0","0","0","0","1501","0","2","Eskannif","47pct","40pct","491","2","Helpful","47pct","62pct","491"
"120219","10:40:11","19","19","4.0.10.0","3","13","EC_Training_N_Warm_L_Competent_Block_2","EC_Training_Trial_L_Competent","1000","0","0","3000","0","0","0","0","1501","0","2","Neenolup","47pct","40pct","491","2","Scientific","47pct","62pct","491"
"120219","10:40:11","19","19","4.0.10.0","3","14","EC_Training_N_Warm_L_Competent_Block_2","EC_Training_Trial_N_Warm","1000","0","0","3000","0","0","0","0","1501","0","2","Eskannif","47pct","40pct","491","1","Friendly","47pct","62pct","491"
"120219","10:40:11","19","19","4.0.10.0","3","15","EC_Training_N_Warm_L_Competent_Block_2","EC_Training_Trial_L_Competent","1000","0","0","3000","0","0","0","0","1501","0","1","Maasolup","47pct","40pct","491","3","Confident","47pct","62pct","491"
"120219","10:40:11","19","19","4.0.10.0","3","16","EC_Training_N_Warm_L_Competent_Block_2","EC_Training_Trial_N_Warm","1000","0","0","3000","0","0","0","0","1501","0","1","Cellanif","47pct","40pct","491","2","Helpful","47pct","62pct","491"
"120219","10:40:11","19","19","4.0.10.0","3","17","EC_Training_N_Warm_L_Competent_Block_2","EC_Training_Trial_L_Competent","1000","0","0","3000","0","0","0","0","1501","0","3","Omeelup","47pct","40pct","491","1","Smart","47pct","62pct","491"
"120219","10:40:11","19","19","4.0.10.0","3","18","EC_Training_N_Warm_L_Competent_Block_2","EC_Training_Trial_N_Warm","1000","0","0","3000","0","0","0","0","1501","0","4","Zallunif","47pct","40pct","491","4","Good-natured","47pct","62pct","491"
"120219","10:40:11","19","19","4.0.10.0","3","19","EC_Training_N_Warm_L_Competent_Block_2","EC_Training_Trial_L_Competent","1000","0","0","3000","0","0","0","0","1501","0","4","Wenaalup","47pct","40pct","491","4","Determined","47pct","62pct","491"
"120219","10:40:11","19","19","4.0.10.0","3","20","EC_Training_N_Warm_L_Competent_Block_2","EC_Training_Trial_N_Warm","1000","0","0","3000","0","0","0","0","1501","0","3","Lebbunif","47pct","40pct","491","3","Kind","47pct","62pct","491"
"120219","10:40:11","19","19","4.0.10.0","4","1","preiat","preiat","0","0","0","0","0","0","next","0","48257","0","1","instIATster.htm","50pct","50pct","782","1","Press here to continue","85pct","50pct","782"
"120219","09:01:11","43","43","4.0.10.0","1","1","Begin1","groups","0","0","0","0","0","0","next","0","35652","0","1","groups.htm","50pct","50pct","135","1","Press here to continue","85pct","50pct","135"
"120219","09:01:11","43","43","4.0.10.0","2","1","EC_Training_N_Warm_L_Competent_Block_1","EC_Training_Trial_L_Competent","1000","0","0","3000","0","0","0","0","1500","0","1","Maasolup","47pct","40pct","499","3","Confident","47pct","62pct","499"
"120219","09:01:11","43","43","4.0.10.0","2","2","EC_Training_N_Warm_L_Competent_Block_1","EC_Training_Trial_N_Warm","1000","0","0","3000","0","0","0","0","1500","0","3","Lebbunif","47pct","40pct","499","2","Helpful","47pct","62pct","499"
"120219","09:01:11","43","43","4.0.10.0","2","3","EC_Training_N_Warm_L_Competent_Block_1","EC_Training_Trial_L_Competent","1000","0","0","3000","0","0","0","0","1500","0","3","Omeelup","47pct","40pct","499","2","Scientific","47pct","62pct","499"
"120219","09:01:11","43","43","4.0.10.0","2","4","EC_Training_N_Warm_L_Competent_Block_1","EC_Training_Trial_N_Warm","1000","0","0","3000","0","0","0","0","1500","0","4","Zallunif","47pct","40pct","499","4","Good-natured","47pct","62pct","499"
"120219","09:01:11","43","43","4.0.10.0","2","5","EC_Training_N_Warm_L_Competent_Block_1","EC_Training_Trial_L_Competent","1000","0","0","3000","0","0","0","0","1500","0","2","Neenolup","47pct","40pct","499","4","Determined","47pct","62pct","499"
"120219","09:01:11","43","43","4.0.10.0","2","6","EC_Training_N_Warm_L_Competent_Block_1","EC_Training_Trial_N_Warm","1000","0","0","3000","0","0","0","0","1500","0","1","Cellanif","47pct","40pct","499","1","Friendly","47pct","62pct","499"
"120219","09:01:11","43","43","4.0.10.0","2","7","EC_Training_N_Warm_L_Competent_Block_1","EC_Training_Trial_L_Competent","1000","0","0","3000","0","0","0","0","1500","0","4","Wenaalup","47pct","40pct","499","1","Smart","47pct","62pct","499"
"120219","09:01:11","43","43","4.0.10.0","2","8","EC_Training_N_Warm_L_Competent_Block_1","EC_Training_Trial_N_Warm","1000","0","0","3000","0","0","0","0","1500","0","2","Eskannif","47pct","40pct","499","3","Kind","47pct","62pct","499"
"120219","09:01:11","43","43","4.0.10.0","2","9","EC_Training_N_Warm_L_Competent_Block_1","EC_Training_Trial_L_Competent","1000","0","0","3000","0","0","0","0","1500","0","2","Neenolup","47pct","40pct","499","3","Confident","47pct","62pct","499"
"120219","09:01:11","43","43","4.0.10.0","2","10","EC_Training_N_Warm_L_Competent_Block_1","EC_Training_Trial_N_Warm","1000","0","0","3000","0","0","0","0","1500","0","2","Eskannif","47pct","40pct","499","4","Good-natured","47pct","62pct","499"
"120219","09:01:11","43","43","4.0.10.0","2","11","EC_Training_N_Warm_L_Competent_Block_1","EC_Training_Trial_L_Competent","1000","0","0","3000","0","0","0","0","1500","0","3","Omeelup","47pct","40pct","499","2","Scientific","47pct","62pct","499"
"120219","09:01:11","43","43","4.0.10.0","2","12","EC_Training_N_Warm_L_Competent_Block_1","EC_Training_Trial_N_Warm","1000","0","0","3000","0","0","0","0","1500","0","1","Cellanif","47pct","40pct","499","2","Helpful","47pct","62pct","499"
"120219","09:01:11","43","43","4.0.10.0","2","13","EC_Training_N_Warm_L_Competent_Block_1","EC_Training_Trial_L_Competent","1000","0","0","3000","0","0","0","0","1500","0","4","Wenaalup","47pct","40pct","499","4","Determined","47pct","62pct","499"
"120219","09:01:11","43","43","4.0.10.0","2","14","EC_Training_N_Warm_L_Competent_Block_1","EC_Training_Trial_N_Warm","1000","0","0","3000","0","0","0","0","1500","0","4","Zallunif","47pct","40pct","499","3","Kind","47pct","62pct","499"
"120219","09:01:11","43","43","4.0.10.0","2","15","EC_Training_N_Warm_L_Competent_Block_1","EC_Training_Trial_L_Competent","1000","0","0","3000","0","0","0","0","1500","0","1","Maasolup","47pct","40pct","499","1","Smart","47pct","62pct","499"
"120219","09:01:11","43","43","4.0.10.0","2","16","EC_Training_N_Warm_L_Competent_Block_1","EC_Training_Trial_N_Warm","1000","0","0","3000","0","0","0","0","1500","0","3","Lebbunif","47pct","40pct","499","1","Friendly","47pct","62pct","499"
"120219","09:01:11","43","43","4.0.10.0","2","17","EC_Training_N_Warm_L_Competent_Block_1","EC_Training_Trial_L_Competent","1000","0","0","3000","0","0","0","0","1500","0","3","Omeelup","47pct","40pct","499","3","Confident","47pct","62pct","499"
"120219","09:01:11","43","43","4.0.10.0","2","18","EC_Training_N_Warm_L_Competent_Block_1","EC_Training_Trial_N_Warm","1000","0","0","3000","0","0","0","0","1500","0","2","Eskannif","47pct","40pct","499","3","Kind","47pct","62pct","499"
"120219","09:01:11","43","43","4.0.10.0","2","19","EC_Training_N_Warm_L_Competent_Block_1","EC_Training_Trial_L_Competent","1000","0","0","3000","0","0","0","0","1500","0","1","Maasolup","47pct","40pct","499","1","Smart","47pct","62pct","499"
"120219","09:01:11","43","43","4.0.10.0","2","20","EC_Training_N_Warm_L_Competent_Block_1","EC_Training_Trial_N_Warm","1000","0","0","3000","0","0","0","0","1500","0","4","Zallunif","47pct","40pct","499","1","Friendly","47pct","62pct","499"
"120219","09:01:11","43","43","4.0.10.0","3","1","EC_Training_N_Warm_L_Competent_Block_2","EC_Training_Trial_L_Competent","1000","0","0","3000","0","0","0","0","1500","0","2","Neenolup","47pct","40pct","499","4","Determined","47pct","62pct","499"
"120219","09:01:11","43","43","4.0.10.0","3","2","EC_Training_N_Warm_L_Competent_Block_2","EC_Training_Trial_N_Warm","1000","0","0","3000","0","0","0","0","1500","0","1","Cellanif","47pct","40pct","499","2","Helpful","47pct","62pct","499"
"120219","09:01:11","43","43","4.0.10.0","3","3","EC_Training_N_Warm_L_Competent_Block_2","EC_Training_Trial_L_Competent","1000","0","0","3000","0","0","0","0","1500","0","4","Wenaalup","47pct","40pct","499","2","Scientific","47pct","62pct","499"
"120219","09:01:11","43","43","4.0.10.0","3","4","EC_Training_N_Warm_L_Competent_Block_2","EC_Training_Trial_N_Warm","1000","0","0","3000","0","0","0","0","1500","0","3","Lebbunif","47pct","40pct","499","4","Good-natured","47pct","62pct","499"
"120219","09:01:11","43","43","4.0.10.0","3","5","EC_Training_N_Warm_L_Competent_Block_2","EC_Training_Trial_L_Competent","1000","0","0","3000","0","0","0","0","1500","0","4","Wenaalup","47pct","40pct","499","2","Scientific","47pct","62pct","499"
"120219","09:01:11","43","43","4.0.10.0","3","6","EC_Training_N_Warm_L_Competent_Block_2","EC_Training_Trial_N_Warm","1000","0","0","3000","0","0","0","0","1500","0","1","Cellanif","47pct","40pct","499","3","Kind","47pct","62pct","499"
"120219","09:01:11","43","43","4.0.10.0","3","7","EC_Training_N_Warm_L_Competent_Block_2","EC_Training_Trial_L_Competent","1000","0","0","3000","0","0","0","0","1500","0","2","Neenolup","47pct","40pct","499","4","Determined","47pct","62pct","499"
"120219","09:01:11","43","43","4.0.10.0","3","8","EC_Training_N_Warm_L_Competent_Block_2","EC_Training_Trial_N_Warm","1000","0","0","3000","0","0","0","0","1500","0","2","Eskannif","47pct","40pct","499","2","Helpful","47pct","62pct","499"
"120219","09:01:11","43","43","4.0.10.0","3","9","EC_Training_N_Warm_L_Competent_Block_2","EC_Training_Trial_L_Competent","1000","0","0","3000","0","0","0","0","1500","0","3","Omeelup","47pct","40pct","499","3","Confident","47pct","62pct","499"
"120219","09:01:11","43","43","4.0.10.0","3","10","EC_Training_N_Warm_L_Competent_Block_2","EC_Training_Trial_N_Warm","1000","0","0","3000","0","0","0","0","1500","0","4","Zallunif","47pct","40pct","499","1","Friendly","47pct","62pct","499"
"120219","09:01:11","43","43","4.0.10.0","3","11","EC_Training_N_Warm_L_Competent_Block_2","EC_Training_Trial_L_Competent","1000","0","0","3000","0","0","0","0","1500","0","1","Maasolup","47pct","40pct","499","1","Smart","47pct","62pct","499"
"120219","09:01:11","43","43","4.0.10.0","3","12","EC_Training_N_Warm_L_Competent_Block_2","EC_Training_Trial_N_Warm","1000","0","0","3000","0","0","0","0","1500","0","3","Lebbunif","47pct","40pct","499","4","Good-natured","47pct","62pct","499"
"120219","09:01:11","43","43","4.0.10.0","3","13","EC_Training_N_Warm_L_Competent_Block_2","EC_Training_Trial_L_Competent","1000","0","0","3000","0","0","0","0","1500","0","3","Omeelup","47pct","40pct","499","4","Determined","47pct","62pct","499"
"120219","09:01:11","43","43","4.0.10.0","3","14","EC_Training_N_Warm_L_Competent_Block_2","EC_Training_Trial_N_Warm","1000","0","0","3000","0","0","0","0","1500","0","3","Lebbunif","47pct","40pct","499","1","Friendly","47pct","62pct","499"
"120219","09:01:11","43","43","4.0.10.0","3","15","EC_Training_N_Warm_L_Competent_Block_2","EC_Training_Trial_L_Competent","1000","0","0","3000","0","0","0","0","1500","0","4","Wenaalup","47pct","40pct","499","3","Confident","47pct","62pct","499"
"120219","09:01:11","43","43","4.0.10.0","3","16","EC_Training_N_Warm_L_Competent_Block_2","EC_Training_Trial_N_Warm","1000","0","0","3000","0","0","0","0","1500","0","1","Cellanif","47pct","40pct","499","4","Good-natured","47pct","62pct","499"
"120219","09:01:11","43","43","4.0.10.0","3","17","EC_Training_N_Warm_L_Competent_Block_2","EC_Training_Trial_L_Competent","1000","0","0","3000","0","0","0","0","1500","0","1","Maasolup","47pct","40pct","499","1","Smart","47pct","62pct","499"
"120219","09:01:11","43","43","4.0.10.0","3","18","EC_Training_N_Warm_L_Competent_Block_2","EC_Training_Trial_N_Warm","1000","0","0","3000","0","0","0","0","1500","0","2","Eskannif","47pct","40pct","499","3","Kind","47pct","62pct","499"
"120219","09:01:11","43","43","4.0.10.0","3","19","EC_Training_N_Warm_L_Competent_Block_2","EC_Training_Trial_L_Competent","1000","0","0","3000","0","0","0","0","1500","0","2","Neenolup","47pct","40pct","499","2","Scientific","47pct","62pct","499"
"120219","09:01:11","43","43","4.0.10.0","3","20","EC_Training_N_Warm_L_Competent_Block_2","EC_Training_Trial_N_Warm","1000","0","0","3000","0","0","0","0","1500","0","4","Zallunif","47pct","40pct","499","2","Helpful","47pct","62pct","499"
"120219","09:01:11","43","43","4.0.10.0","4","1","preiat","preiat","0","0","0","0","0","0","next","0","57062","0","1","instIATster.htm","50pct","50pct","434","1","Press here to continue","85pct","50pct","434"
"120219","11:33:01","44","44","4.0.10.0","1","1","Begin1","groups","0","0","0","0","0","0","next","0","14437","0","1","groups.htm","50pct","50pct","684","1","Press here to continue","85pct","50pct","684"
"120219","11:33:01","44","44","4.0.10.0","2","1","EC_Training_N_Warm_L_Competent_Block_1","EC_Training_Trial_N_Warm","1000","0","0","3000","0","0","0","0","1500","0","4","Zallunif","47pct","40pct","499","2","Helpful","47pct","62pct","499"
"120219","11:33:01","44","44","4.0.10.0","2","2","EC_Training_N_Warm_L_Competent_Block_1","EC_Training_Trial_L_Competent","1000","0","0","3000","0","0","0","0","1500","0","3","Omeelup","47pct","40pct","499","4","Determined","47pct","62pct","499"
"120219","11:33:01","44","44","4.0.10.0","2","3","EC_Training_N_Warm_L_Competent_Block_1","EC_Training_Trial_N_Warm","1000","0","0","3000","0","0","0","0","1500","0","2","Eskannif","47pct","40pct","499","1","Friendly","47pct","62pct","499"
"120219","11:33:01","44","44","4.0.10.0","2","4","EC_Training_N_Warm_L_Competent_Block_1","EC_Training_Trial_L_Competent","1000","0","0","3000","0","0","0","0","1500","0","4","Wenaalup","47pct","40pct","499","1","Smart","47pct","62pct","499"
"120219","11:33:01","44","44","4.0.10.0","2","5","EC_Training_N_Warm_L_Competent_Block_1","EC_Training_Trial_N_Warm","1000","0","0","3000","0","0","0","0","1500","0","3","Lebbunif","47pct","40pct","499","3","Kind","47pct","62pct","499"
"120219","11:33:01","44","44","4.0.10.0","2","6","EC_Training_N_Warm_L_Competent_Block_1","EC_Training_Trial_L_Competent","1000","0","0","3000","0","0","0","0","1500","0","2","Neenolup","47pct","40pct","499","3","Confident","47pct","62pct","499"
"120219","11:33:01","44","44","4.0.10.0","2","7","EC_Training_N_Warm_L_Competent_Block_1","EC_Training_Trial_N_Warm","1000","0","0","3000","0","0","0","0","1500","0","1","Cellanif","47pct","40pct","499","4","Good-natured","47pct","62pct","499"
"120219","11:33:01","44","44","4.0.10.0","2","8","EC_Training_N_Warm_L_Competent_Block_1","EC_Training_Trial_L_Competent","1000","0","0","3000","0","0","0","0","1500","0","1","Maasolup","47pct","40pct","499","2","Scientific","47pct","62pct","499"
"120219","11:33:01","44","44","4.0.10.0","2","9","EC_Training_N_Warm_L_Competent_Block_1","EC_Training_Trial_N_Warm","1000","0","0","3000","0","0","0","0","1500","0","2","Eskannif","47pct","40pct","499","1","Friendly","47pct","62pct","499"
"120219","11:33:01","44","44","4.0.10.0","2","10","EC_Training_N_Warm_L_Competent_Block_1","EC_Training_Trial_L_Competent","1000","0","0","3000","0","0","0","0","1500","0","4","Wenaalup","47pct","40pct","499","2","Scientific","47pct","62pct","499"
"120219","11:33:01","44","44","4.0.10.0","2","11","EC_Training_N_Warm_L_Competent_Block_1","EC_Training_Trial_N_Warm","1000","0","0","3000","0","0","0","0","1500","0","3","Lebbunif","47pct","40pct","499","4","Good-natured","47pct","62pct","499"
"120219","11:33:01","44","44","4.0.10.0","2","12","EC_Training_N_Warm_L_Competent_Block_1","EC_Training_Trial_L_Competent","1000","0","0","3000","0","0","0","0","1500","0","2","Neenolup","47pct","40pct","499","4","Determined","47pct","62pct","499"
"120219","11:33:01","44","44","4.0.10.0","2","13","EC_Training_N_Warm_L_Competent_Block_1","EC_Training_Trial_N_Warm","1000","0","0","3000","0","0","0","0","1500","0","1","Cellanif","47pct","40pct","499","2","Helpful","47pct","62pct","499"
"120219","11:33:01","44","44","4.0.10.0","2","14","EC_Training_N_Warm_L_Competent_Block_1","EC_Training_Trial_L_Competent","1000","0","0","3000","0","0","0","0","1500","0","3","Omeelup","47pct","40pct","499","1","Smart","47pct","62pct","499"
"120219","11:33:01","44","44","4.0.10.0","2","15","EC_Training_N_Warm_L_Competent_Block_1","EC_Training_Trial_N_Warm","1000","0","0","3000","0","0","0","0","1500","0","4","Zallunif","47pct","40pct","499","3","Kind","47pct","62pct","499"
"120219","11:33:01","44","44","4.0.10.0","2","16","EC_Training_N_Warm_L_Competent_Block_1","EC_Training_Trial_L_Competent","1000","0","0","3000","0","0","0","0","1500","0","1","Maasolup","47pct","40pct","499","3","Confident","47pct","62pct","499"
"120219","11:33:01","44","44","4.0.10.0","2","17","EC_Training_N_Warm_L_Competent_Block_1","EC_Training_Trial_N_Warm","1000","0","0","3000","0","0","0","0","1500","0","2","Eskannif","47pct","40pct","499","3","Kind","47pct","62pct","499"
"120219","11:33:01","44","44","4.0.10.0","2","18","EC_Training_N_Warm_L_Competent_Block_1","EC_Training_Trial_L_Competent","1000","0","0","3000","0","0","0","0","1500","0","2","Neenolup","47pct","40pct","499","2","Scientific","47pct","62pct","499"
"120219","11:33:01","44","44","4.0.10.0","2","19","EC_Training_N_Warm_L_Competent_Block_1","EC_Training_Trial_N_Warm","1000","0","0","3000","0","0","0","0","1500","0","3","Lebbunif","47pct","40pct","499","2","Helpful","47pct","62pct","499"
"120219","11:33:01","44","44","4.0.10.0","2","20","EC_Training_N_Warm_L_Competent_Block_1","EC_Training_Trial_L_Competent","1000","0","0","3000","0","0","0","0","1500","0","3","Omeelup","47pct","40pct","499","4","Determined","47pct","62pct","499"
"120219","11:33:01","44","44","4.0.10.0","3","1","EC_Training_N_Warm_L_Competent_Block_2","EC_Training_Trial_L_Competent","1000","0","0","3000","0","0","0","0","1500","0","4","Wenaalup","47pct","40pct","499","1","Smart","47pct","62pct","499"
"120219","11:33:01","44","44","4.0.10.0","3","2","EC_Training_N_Warm_L_Competent_Block_2","EC_Training_Trial_N_Warm","1000","0","0","3000","0","0","0","0","1500","0","1","Cellanif","47pct","40pct","499","4","Good-natured","47pct","62pct","499"
"120219","11:33:01","44","44","4.0.10.0","3","3","EC_Training_N_Warm_L_Competent_Block_2","EC_Training_Trial_L_Competent","1000","0","0","3000","0","0","0","0","1500","0","1","Maasolup","47pct","40pct","499","3","Confident","47pct","62pct","499"
"120219","11:33:01","44","44","4.0.10.0","3","4","EC_Training_N_Warm_L_Competent_Block_2","EC_Training_Trial_N_Warm","1000","0","0","3000","0","0","0","0","1500","0","4","Zallunif","47pct","40pct","499","1","Friendly","47pct","62pct","499"
"120219","11:33:01","44","44","4.0.10.0","3","5","EC_Training_N_Warm_L_Competent_Block_2","EC_Training_Trial_L_Competent","1000","0","0","3000","0","0","0","0","1500","0","2","Neenolup","47pct","40pct","499","4","Determined","47pct","62pct","499"
"120219","11:33:01","44","44","4.0.10.0","3","6","EC_Training_N_Warm_L_Competent_Block_2","EC_Training_Trial_N_Warm","1000","0","0","3000","0","0","0","0","1500","0","2","Eskannif","47pct","40pct","499","4","Good-natured","47pct","62pct","499"
"120219","11:33:01","44","44","4.0.10.0","3","7","EC_Training_N_Warm_L_Competent_Block_2","EC_Training_Trial_L_Competent","1000","0","0","3000","0","0","0","0","1500","0","1","Maasolup","47pct","40pct","499","1","Smart","47pct","62pct","499"
"120219","11:33:01","44","44","4.0.10.0","3","8","EC_Training_N_Warm_L_Competent_Block_2","EC_Training_Trial_N_Warm","1000","0","0","3000","0","0","0","0","1500","0","4","Zallunif","47pct","40pct","499","3","Kind","47pct","62pct","499"
"120219","11:33:01","44","44","4.0.10.0","3","9","EC_Training_N_Warm_L_Competent_Block_2","EC_Training_Trial_L_Competent","1000","0","0","3000","0","0","0","0","1500","0","3","Omeelup","47pct","40pct","499","2","Scientific","47pct","62pct","499"
