"date","time","subject","blockcode","blocknum","trialcode","trialnum","response","correct","latency","stimulusnumber1","stimulusitem1","expressions.da","expressions.db","expressions.d"
"120219","15:29:29","7","targetincompatiblepractice","1","targetBleft","2","18","0","5333","2","Neenolup","","","0"
"120219","15:29:29","7","targetincompatiblepractice","1","targetAright","3","23","1","1505","1","Cellanif","","","0"
"120219","15:29:29","7","targetincompatiblepractice","1","targetAright","4","23","1","1136","3","Lebbunif","","","0"
"120219","15:29:29","7","targetincompatiblepractice","1","targetAright","5","23","1","848","4","Zallunif","","","0"
"120219","15:29:29","7","targetincompatiblepractice","1","targetBleft","6","18","1","1151","3","Omeelup","","","0"
"120219","15:29:29","7","targetincompatiblepractice","1","targetBleft","7","18","1","967","1","Maasolup","","","0"
"120219","15:29:29","7","targetincompatiblepractice","1","targetAright","8","23","1","635","2","Eskannif","","","0"
"120219","15:29:29","7","targetincompatiblepractice","1","targetBleft","9","18","1","1044","4","Wenaalup","","","0"
"120219","15:29:29","7","targetincompatiblepractice","1","targetBleft","10","18","1","740","1","Maasolup","","","0"
"120219","15:29:29","7","targetincompatiblepractice","1","targetAright","11","23","1","557","4","Zallunif","","","0"
"120219","15:29:29","7","targetincompatiblepractice","1","targetBleft","12","18","1","1396","2","Neenolup","","","0"
"120219","15:29:29","7","targetincompatiblepractice","1","targetBleft","13","18","1","627","3","Omeelup","","","0"
"120219","15:29:29","7","targetincompatiblepractice","1","targetAright","14","23","1","640","3","Lebbunif","","","0"
"120219","15:29:29","7","targetincompatiblepractice","1","targetAright","15","23","1","818","2","Eskannif","","","0"
"120219","15:29:29","7","targetincompatiblepractice","1","targetAright","16","23","1","782","1","Cellanif","","","0"
"120219","15:29:29","7","targetincompatiblepractice","1","targetAright","17","23","1","622","2","Eskannif","","","0"
"120219","15:29:29","7","targetincompatiblepractice","1","targetBleft","18","18","1","675","4","Wenaalup","","","0"
"120219","15:29:29","7","targetincompatiblepractice","1","targetAright","19","23","1","687","4","Zallunif","","","0"
"120219","15:29:29","7","targetincompatiblepractice","1","targetBleft","20","18","1","565","1","Maasolup","","","0"
"120219","15:29:29","7","targetincompatiblepractice","1","targetBleft","21","18","1","516","2","Neenolup","","","0"
"120219","15:29:29","7","attributepractice","2","attributeA","2","18","1","685","4","Caring","","","0"
"120219","15:29:29","7","attributepractice","2","attributeA","3","18","0","1953","3","Sociable","","","0"
"120219","15:29:29","7","attributepractice","2","attributeB","4","23","1","800","2","Intelligent","","","0"
"120219","15:29:29","7","attributepractice","2","attributeB","5","23","1","848","4","Efficient","","","0"
"120219","15:29:29","7","attributepractice","2","attributeA","6","18","1","976","2","Nice","","","0"
"120219","15:29:29","7","attributepractice","2","attributeA","7","18","1","733","1","Warm","","","0"
"120219","15:29:29","7","attributepractice","2","attributeB","8","23","0","1659","1","Competent","","","0"
"120219","15:29:29","7","attributepractice","2","attributeB","9","23","1","973","3","Skillful","","","0"
"120219","15:29:29","7","attributepractice","2","attributeB","10","23","0","1188","1","Competent","","","0"
"120219","15:29:29","7","attributepractice","2","attributeB","11","23","1","773","2","Intelligent","","","0"
"120219","15:29:29","7","attributepractice","2","attributeA","12","18","1","603","1","Warm","","","0"
"120219","15:29:29","7","attributepractice","2","attributeB","13","23","1","779","3","Skillful","","","0"
"120219","15:29:29","7","attributepractice","2","attributeA","14","18","1","737","4","Caring","","","0"
"120219","15:29:29","7","attributepractice","2","attributeA","15","18","1","1300","3","Sociable","","","0"
"120219","15:29:29","7","attributepractice","2","attributeB","16","23","1","1046","4","Efficient","","","0"
"120219","15:29:29","7","attributepractice","2","attributeB","17","23","1","916","1","Competent","","","0"
"120219","15:29:29","7","attributepractice","2","attributeB","18","23","1","772","3","Skillful","","","0"
"120219","15:29:29","7","attributepractice","2","attributeA","19","18","1","639","2","Nice","","","0"
"120219","15:29:29","7","attributepractice","2","attributeA","20","18","0","1017","3","Sociable","","","0"
"120219","15:29:29","7","attributepractice","2","attributeA","21","18","1","1213","2","Nice","","","0"
"120219","15:29:29","7","incompatibletest1","3","attributeB","2","23","1","1661","4","Efficient","","","0"
"120219","15:29:29","7","incompatibletest1","3","targetBleft","3","18","1","976","3","Omeelup","1.2549554946924315058","","0.6274777473462157529"
"120219","15:29:29","7","incompatibletest1","3","attributeA","4","18","0","1403","1","Warm","1.5058515886350816171","","0.7529257943175408085"
"120219","15:29:29","7","incompatibletest1","3","targetBleft","5","18","1","1456","4","Wenaalup","1.6282646022393358898","","0.8141323011196679449"
"120219","15:29:29","7","incompatibletest1","3","attributeB","6","23","0","1897","2","Intelligent","1.6531292789996940851","","0.8265646394998470425"
"120219","15:29:29","7","incompatibletest1","3","targetAright","7","23","0","875","3","Lebbunif","1.6196980079953335885","","0.8098490039976667942"
"120219","15:29:29","7","incompatibletest1","3","attributeA","8","18","0","1235","4","Caring","1.6598696100247642971","","0.8299348050123821485"
"120219","15:29:29","7","incompatibletest1","3","targetAright","9","23","0","2177","1","Cellanif","1.6266708091403008218","","0.8133354045701504109"
"120219","15:29:29","7","incompatibletest1","3","attributeB","10","23","1","1342","2","Intelligent","1.6571688076084001295","","0.8285844038042000648"
"120219","15:29:29","7","incompatibletest1","3","targetBleft","11","18","0","1400","2","Neenolup","1.6853992502819197252","","0.8426996251409598626"
"120219","15:29:29","7","incompatibletest1","3","attributeA","12","18","0","1036","2","Nice","1.6831290573538799649","","0.8415645286769399824"
"120219","15:29:29","7","incompatibletest1","3","targetAright","13","23","0","651","1","Cellanif","1.6292323419556582476","","0.8146161709778291238"
"120219","15:29:29","7","incompatibletest1","3","attributeA","14","18","0","581","3","Sociable","1.5769531545244444004","","0.7884765772622222002"
"120219","15:29:29","7","incompatibletest1","3","targetBleft","15","18","1","663","4","Wenaalup","1.5482553040431443758","","0.7741276520215721879"
"120219","15:29:29","7","incompatibletest1","3","attributeA","16","18","0","1191","4","Caring","1.569309642587618292","","0.784654821293809146"
"120219","15:29:29","7","incompatibletest1","3","targetAright","17","23","1","1421","2","Eskannif","1.5918332154355365748","","0.7959166077177682874"
"120219","15:29:29","7","incompatibletest1","3","attributeB","18","23","1","1297","3","Skillful","1.6113535635226174936","","0.8056767817613087468"
"120219","15:29:29","7","incompatibletest1","3","targetAright","19","23","1","947","4","Zallunif","1.6144709115222779516","","0.8072354557611389758"
"120219","15:29:29","7","incompatibletest1","3","attributeB","20","23","1","1204","4","Efficient","1.6296374978934511368","","0.8148187489467255684"
"120219","15:29:29","7","incompatibletest1","3","targetBleft","21","18","1","833","3","Omeelup","1.6246681469806973919","","0.8123340734903486959"
"120219","15:29:29","7","incompatibletest2","5","attributeB","1","23","1","2088","1","Competent","1.6246681469806973919","","0.8123340734903486959"
"120219","15:29:29","7","incompatibletest2","5","targetAright","2","23","1","1004","3","Lebbunif","1.6246681469806973919","1.1579351671563165027","1.3913016570685070583"
"120219","15:29:29","7","incompatibletest2","5","attributeB","3","23","1","1203","1","Competent","1.6246681469806973919","1.3640449849442037866","1.4943565659624504782"
"120219","15:29:29","7","incompatibletest2","5","targetAright","4","23","1","770","4","Zallunif","1.6246681469806973919","1.3607722275518883137","1.4927201872662929638"
"120219","15:29:29","7","incompatibletest2","5","attributeA","5","18","1","858","1","Warm","1.6246681469806973919","1.3956420676507510503","1.5101551073157242211"
"120219","15:29:29","7","incompatibletest2","5","targetAright","6","23","1","704","1","Cellanif","1.6246681469806973919","1.3915374620415645879","1.5081028045111311009"
"120219","15:29:29","7","incompatibletest2","5","attributeA","7","18","1","1364","3","Sociable","1.6246681469806973919","1.4619476237525546036","1.5433078853666259977"
"120219","15:29:29","7","incompatibletest2","5","targetAright","8","23","1","1096","3","Lebbunif","1.6246681469806973919","1.5101743617486194093","1.5674212543646584006"
"120219","15:29:29","7","incompatibletest2","5","attributeA","9","18","1","2110","4","Caring","1.6246681469806973919","1.4731557705732187813","1.5489119587769581976"
"120219","15:29:29","7","incompatibletest2","5","targetBleft","10","18","0","1324","1","Maasolup","1.6246681469806973919","1.5148983391385844044","1.5697832430596410092"
"120219","15:29:29","7","incompatibletest2","5","attributeB","11","23","1","638","3","Skillful","1.6246681469806973919","1.4829764211333003043","1.5538222840569988481"
"120219","15:29:29","7","incompatibletest2","5","targetAright","12","23","1","922","2","Eskannif","1.6246681469806973919","1.4955784616112408614","1.5601233042959692376"
"120219","15:29:29","7","incompatibletest2","5","attributeB","13","23","1","636","4","Efficient","1.6246681469806973919","1.4746220685106008474","1.5496451077456492307"
"120219","15:29:29","7","incompatibletest2","5","targetBleft","14","18","1","720","3","Omeelup","1.6246681469806973919","1.4694032215161900723","1.5470356842484438431"
"120219","15:29:29","7","incompatibletest2","5","attributeA","15","18","0","835","2","Nice","1.6246681469806973919","1.4777133891100193708","1.5511907680453584923"
"120219","15:29:29","7","incompatibletest2","5","targetBleft","16","18","0","1113","4","Wenaalup","1.6246681469806973919","1.5015029545207587702","1.5630855507507281921"
"120219","15:29:29","7","incompatibletest2","5","attributeA","17","18","1","742","1","Warm","1.6246681469806973919","1.5008104290815493798","1.5627392880311234968"
"120219","15:29:29","7","incompatibletest2","5","targetBleft","18","18","1","926","2","Neenolup","1.6246681469806973919","1.5144358248696323521","1.569551985925164761"
"120219","15:29:29","7","incompatibletest2","5","attributeB","19","23","1","633","2","Intelligent","1.6246681469806973919","1.5047827074428086203","1.5647254272117530061"
"120219","15:29:29","7","incompatibletest2","5","targetBleft","20","18","1","700","1","Maasolup","1.6246681469806973919","1.5031685539849379829","1.5639183504828175764"
"120219","15:29:29","7","incompatibletest2","5","attributeB","21","23","1","633","4","Efficient","1.6246681469806973919","1.4967780105420158687","1.5607230787613566303"
"120219","15:29:29","7","incompatibletest2","5","targetBleft","22","18","1","416","2","Neenolup","1.6246681469806973919","1.46951230702230351","1.547090227001500562"
"120219","15:29:29","7","incompatibletest2","5","attributeB","23","23","1","452","2","Intelligent","1.6246681469806973919","1.4497851207567682419","1.5372266338687328169"
"120219","15:29:29","7","incompatibletest2","5","targetAright","24","23","0","1041","1","Cellanif","1.6246681469806973919","1.4669157379290882481","1.545791942454892709"
"120219","15:29:29","7","incompatibletest2","5","attributeB","25","23","0","1230","3","Skillful","1.6246681469806973919","1.4831730221210215337","1.5539205845508594628"
"120219","15:29:29","7","incompatibletest2","5","targetBleft","26","18","1","545","4","Wenaalup","1.6246681469806973919","1.4738133080952307008","1.5492407275379640463"
"120219","15:29:29","7","incompatibletest2","5","attributeA","27","18","0","811","3","Sociable","1.6246681469806973919","1.4821785134125167183","1.553423330196606944"
"120219","15:29:29","7","incompatibletest2","5","targetAright","28","23","0","1459","2","Eskannif","1.6246681469806973919","1.4896268402763677141","1.557147493628532553"
"120219","15:29:29","7","incompatibletest2","5","attributeA","29","18","0","1204","4","Caring","1.6246681469806973919","1.5033498649694736482","1.56400900597508552"
"120219","15:29:29","7","incompatibletest2","5","targetBleft","30","18","1","552","3","Omeelup","1.6246681469806973919","1.4949638942306748834","1.5598160206056861377"
"120219","15:29:29","7","incompatibletest2","5","attributeA","31","18","1","494","2","Nice","1.6246681469806973919","1.4833087138814844419","1.5539884304310909169"
"120219","15:29:29","7","incompatibletest2","5","targetAright","32","23","1","1124","4","Zallunif","1.6246681469806973919","1.4960627153278078794","1.5603654311542527466"
"120219","15:29:29","7","incompatibletest2","5","attributeA","33","18","1","602","1","Warm","1.6246681469806973919","1.4925625882023318969","1.5586153675915146444"
"120219","15:29:29","7","incompatibletest2","5","targetBleft","34","18","0","1298","1","Maasolup","1.6246681469806973919","1.5024715039657952076","1.5635698254732464108"
"120219","15:29:29","7","incompatibletest2","5","attributeB","35","23","0","1366","1","Competent","1.6246681469806973919","1.5105370601371699291","1.5676026035589336605"
"120219","15:29:29","7","incompatibletest2","5","targetBleft","36","18","0","1198","4","Wenaalup","1.6246681469806973919","1.5211473509633068879","1.5729077489720020289"
"120219","15:29:29","7","incompatibletest2","5","attributeA","37","18","1","633","4","Caring","1.6246681469806973919","1.5186078921739265546","1.5716380195773118622"
"120219","15:29:29","7","incompatibletest2","5","targetAright","38","23","1","813","3","Lebbunif","1.6246681469806973919","1.5238499980420847635","1.5742590725113911887"
"120219","15:29:29","7","incompatibletest2","5","attributeB","39","23","0","1343","4","Efficient","1.6246681469806973919","1.5310955020153744766","1.5778818244980359342"
"120219","15:29:29","7","incompatibletest2","5","targetAright","40","23","1","897","2","Eskannif","1.6246681469806973919","1.5380121440701428615","1.5813401455254201267"
"120219","15:29:29","7","targetcompatiblepracticeswitch","6","targetBright","2","23","0","1286","2","Neenolup","1.6246681469806973919","1.5380121440701428615","1.5813401455254201267"
"120219","15:29:29","7","targetcompatiblepracticeswitch","6","targetBright","3","23","1","403","1","Maasolup","1.6246681469806973919","1.5380121440701428615","1.5813401455254201267"
"120219","15:29:29","7","targetcompatiblepracticeswitch","6","targetAleft","4","18","1","631","1","Cellanif","1.6246681469806973919","1.5380121440701428615","1.5813401455254201267"
"120219","15:29:29","7","targetcompatiblepracticeswitch","6","targetBright","5","23","1","310","3","Omeelup","1.6246681469806973919","1.5380121440701428615","1.5813401455254201267"
"120219","15:29:29","7","targetcompatiblepracticeswitch","6","targetBright","6","23","1","700","3","Omeelup","1.6246681469806973919","1.5380121440701428615","1.5813401455254201267"
"120219","15:29:29","7","targetcompatiblepracticeswitch","6","targetBright","7","23","1","507","1","Maasolup","1.6246681469806973919","1.5380121440701428615","1.5813401455254201267"
"120219","15:29:29","7","targetcompatiblepracticeswitch","6","targetAleft","8","18","1","554","4","Zallunif","1.6246681469806973919","1.5380121440701428615","1.5813401455254201267"
"120219","15:29:29","7","targetcompatiblepracticeswitch","6","targetBright","9","23","1","534","4","Wenaalup","1.6246681469806973919","1.5380121440701428615","1.5813401455254201267"
"120219","15:29:29","7","targetcompatiblepracticeswitch","6","targetAleft","10","18","1","718","3","Lebbunif","1.6246681469806973919","1.5380121440701428615","1.5813401455254201267"
"120219","15:29:29","7","targetcompatiblepracticeswitch","6","targetBright","11","23","1","1105","2","Neenolup","1.6246681469806973919","1.5380121440701428615","1.5813401455254201267"
"120219","15:29:29","7","targetcompatiblepracticeswitch","6","targetAleft","12","18","1","596","3","Lebbunif","1.6246681469806973919","1.5380121440701428615","1.5813401455254201267"
"120219","15:29:29","7","targetcompatiblepracticeswitch","6","targetAleft","13","18","1","875","4","Zallunif","1.6246681469806973919","1.5380121440701428615","1.5813401455254201267"
"120219","15:29:29","7","targetcompatiblepracticeswitch","6","targetAleft","14","18","1","502","1","Cellanif","1.6246681469806973919","1.5380121440701428615","1.5813401455254201267"
"120219","15:29:29","7","targetcompatiblepracticeswitch","6","targetAleft","15","18","1","892","2","Eskannif","1.6246681469806973919","1.5380121440701428615","1.5813401455254201267"
"120219","15:29:29","7","targetcompatiblepracticeswitch","6","targetBright","16","23","1","604","3","Omeelup","1.6246681469806973919","1.5380121440701428615","1.5813401455254201267"
"120219","15:29:29","7","targetcompatiblepracticeswitch","6","targetBright","17","23","1","445","4","Wenaalup","1.6246681469806973919","1.5380121440701428615","1.5813401455254201267"
"120219","15:29:29","7","targetcompatiblepracticeswitch","6","targetAleft","18","18","0","778","1","Cellanif","1.6246681469806973919","1.5380121440701428615","1.5813401455254201267"
"120219","15:29:29","7","targetcompatiblepracticeswitch","6","targetAleft","19","18","0","810","3","Lebbunif","1.6246681469806973919","1.5380121440701428615","1.5813401455254201267"
"120219","15:29:29","7","targetcompatiblepracticeswitch","6","targetBright","20","23","0","648","2","Neenolup","1.6246681469806973919","1.5380121440701428615","1.5813401455254201267"
"120219","15:29:29","7","targetcompatiblepracticeswitch","6","targetAleft","21","18","0","1111","2","Eskannif","1.6246681469806973919","1.5380121440701428615","1.5813401455254201267"
"120219","15:29:29","7","targetcompatiblepracticeswitch","6","targetBright","22","23","1","828","1","Maasolup","1.6246681469806973919","1.5380121440701428615","1.5813401455254201267"
"120219","15:29:29","7","targetcompatiblepracticeswitch","6","targetBright","23","23","1","616","1","Maasolup","1.6246681469806973919","1.5380121440701428615","1.5813401455254201267"
"120219","15:29:29","7","targetcompatiblepracticeswitch","6","targetBright","24","23","1","320","3","Omeelup","1.6246681469806973919","1.5380121440701428615","1.5813401455254201267"
"120219","15:29:29","7","targetcompatiblepracticeswitch","6","targetAleft","25","18","1","551","4","Zallunif","1.6246681469806973919","1.5380121440701428615","1.5813401455254201267"
"120219","15:29:29","7","targetcompatiblepracticeswitch","6","targetBright","26","23","1","692","2","Neenolup","1.6246681469806973919","1.5380121440701428615","1.5813401455254201267"
"120219","15:29:29","7","targetcompatiblepracticeswitch","6","targetAleft","27","18","0","1794","3","Lebbunif","1.6246681469806973919","1.5380121440701428615","1.5813401455254201267"
"120219","15:29:29","7","targetcompatiblepracticeswitch","6","targetBright","28","23","0","701","4","Wenaalup","1.6246681469806973919","1.5380121440701428615","1.5813401455254201267"
"120219","15:29:29","7","targetcompatiblepracticeswitch","6","targetBright","29","23","1","264","3","Omeelup","1.6246681469806973919","1.5380121440701428615","1.5813401455254201267"
"120219","15:29:29","7","targetcompatiblepracticeswitch","6","targetAleft","30","18","0","621","2","Eskannif","1.6246681469806973919","1.5380121440701428615","1.5813401455254201267"
"120219","15:29:29","7","targetcompatiblepracticeswitch","6","targetAleft","31","18","1","229","1","Cellanif","1.6246681469806973919","1.5380121440701428615","1.5813401455254201267"
"120219","15:29:29","7","targetcompatiblepracticeswitch","6","targetAleft","32","18","1","166","4","Zallunif","1.6246681469806973919","1.5380121440701428615","1.5813401455254201267"
"120219","15:29:29","7","targetcompatiblepracticeswitch","6","targetAleft","33","18","1","254","4","Zallunif","1.6246681469806973919","1.5380121440701428615","1.5813401455254201267"
"120219","15:29:29","7","targetcompatiblepracticeswitch","6","targetAleft","34","18","1","234","2","Eskannif","1.6246681469806973919","1.5380121440701428615","1.5813401455254201267"
"120219","15:29:29","7","targetcompatiblepracticeswitch","6","targetBright","35","23","1","618","4","Wenaalup","1.6246681469806973919","1.5380121440701428615","1.5813401455254201267"
"120219","15:29:29","7","targetcompatiblepracticeswitch","6","targetBright","36","23","1","417","2","Neenolup","1.6246681469806973919","1.5380121440701428615","1.5813401455254201267"
"120219","15:29:29","7","targetcompatiblepracticeswitch","6","targetAleft","37","18","1","662","3","Lebbunif","1.6246681469806973919","1.5380121440701428615","1.5813401455254201267"
"120219","15:29:29","7","targetcompatiblepracticeswitch","6","targetAleft","38","18","1","980","1","Cellanif","1.6246681469806973919","1.5380121440701428615","1.5813401455254201267"
"120219","15:29:29","7","targetcompatiblepracticeswitch","6","targetBright","39","23","1","619","1","Maasolup","1.6246681469806973919","1.5380121440701428615","1.5813401455254201267"
"120219","15:29:29","7","targetcompatiblepracticeswitch","6","targetAleft","40","18","0","1167","4","Zallunif","1.6246681469806973919","1.5380121440701428615","1.5813401455254201267"
"120219","15:29:29","7","targetcompatiblepracticeswitch","6","targetBright","41","23","1","681","4","Wenaalup","1.6246681469806973919","1.5380121440701428615","1.5813401455254201267"
"120219","15:29:29","7","compatibletest1","7","attributeB","2","23","1","792","3","Skillful","0.9217832669161285519","1.5380121440701428615","1.2298977054931357067"
"120219","15:29:29","7","compatibletest1","7","targetBright","3","23","1","849","3","Omeelup","0.8892573255995112058","1.5380121440701428615","1.2136347348348270891"
"120219","15:29:29","7","compatibletest1","7","attributeA","4","18","0","1192","2","Nice","0.6501616913607666248","1.5380121440701428615","1.0940869177154546321"
"120219","15:29:29","7","compatibletest1","7","targetBright","5","23","1","786","2","Neenolup","0.7458613792308746993","1.5380121440701428615","1.1419367616505087248"
"120219","15:29:29","7","compatibletest1","7","attributeA","6","18","1","598","1","Warm","0.8746946400988180326","1.5380121440701428615","1.206353392084480447"
"120219","15:29:29","7","compatibletest1","7","targetAleft","7","18","0","1576","2","Eskannif","0.5977683007222703848","1.5380121440701428615","1.0678902223962065676"
"120219","15:29:29","7","compatibletest1","7","attributeA","8","18","0","1070","3","Sociable","0.5743279149020010799","1.5380121440701428615","1.0561700294860720817"
"120219","15:29:29","7","compatibletest1","7","targetAleft","9","18","1","1090","1","Cellanif","0.5519490852371586875","1.5380121440701428615","1.0449806146536508855"
"120219","15:29:29","7","compatibletest1","7","attributeB","10","23","0","1171","2","Intelligent","0.5126427159192238348","1.5380121440701428615","1.0253274299946832926"
"120219","15:29:29","7","compatibletest1","7","targetBright","11","23","1","698","1","Maasolup","0.5907224979382897923","1.5380121440701428615","1.0643673210042163824"
"120219","15:29:29","7","compatibletest1","7","attributeB","12","23","1","877","1","Competent","0.6217007945697163862","1.5380121440701428615","1.0798564693199295128"
"120219","15:29:29","7","compatibletest1","7","targetBright","13","23","1","1200","2","Neenolup","0.5825408850948494699","1.5380121440701428615","1.0602765145824961657"
"120219","15:29:29","7","compatibletest1","7","attributeA","14","18","1","994","3","Sociable","0.590600523059963578","1.5380121440701428615","1.0643063335650531087"
"120219","15:29:29","7","compatibletest1","7","targetAleft","15","18","1","863","3","Lebbunif","0.6204239563615890907","1.5380121440701428615","1.0792180502158659205"
"120219","15:29:29","7","compatibletest1","7","attributeB","16","23","1","871","4","Efficient","0.6462141769695013416","1.5380121440701428615","1.0921131605198222125"
"120219","15:29:29","7","compatibletest1","7","targetBright","17","23","1","701","3","Omeelup","0.6910239626401460944","1.5380121440701428615","1.1145180533551444224"
"120219","15:29:29","7","compatibletest1","7","attributeA","18","18","1","1482","2","Nice","0.6070822973685682244","1.5380121440701428615","1.0725472207193555985"
"120219","15:29:29","7","compatibletest1","7","targetAleft","19","18","1","1075","4","Zallunif","0.6023089390025847534","1.5380121440701428615","1.0701605415363637519"
"120219","15:29:29","7","compatibletest1","7","attributeB","20","23","0","1230","2","Intelligent","0.5748817510070635128","1.5380121440701428615","1.0564469475386031316"
"120219","15:29:29","7","compatibletest1","7","targetAleft","21","18","0","1064","2","Eskannif","0.5741004982345929708","1.5380121440701428615","1.0560563211523679161"
"120219","15:29:29","7","compatibletest2","9","attributeB","1","23","0","872","1","Competent","0.5741004982345929708","0.2316954143137976152","0.4028979562741952791"
"120219","15:29:29","7","compatibletest2","9","targetBright","2","23","1","316","1","Maasolup","0.5741004982345929708","0.8563681982604960385","0.7152343482475445047"
"120219","15:29:29","7","compatibletest2","9","attributeB","3","23","1","410","3","Skillful","0.5741004982345929708","0.9743202531575251291","0.7742103756960589944"
"120219","15:29:29","7","compatibletest2","9","targetBright","4","23","1","386","4","Wenaalup","0.5741004982345929708","1.0432535035984309424","0.8086770009165119566"
"120219","15:29:29","7","compatibletest2","9","attributeB","5","23","1","383","3","Skillful","0.5741004982345929708","1.0871704036267397786","0.8306354509306663747"
"120219","15:29:29","7","compatibletest2","9","targetAleft","6","18","0","818","1","Cellanif","0.5741004982345929708","0.995783557280622289","0.7849420277576075744"
"120219","15:29:29","7","compatibletest2","9","attributeB","7","23","0","736","4","Efficient","0.5741004982345929708","0.9499784597913288886","0.7620394790129609852"
"120219","15:29:29","7","compatibletest2","9","targetBright","8","23","1","741","4","Wenaalup","0.5741004982345929708","0.9142478306748099692","0.7441741644547015255"
"120219","15:29:29","7","compatibletest2","9","attributeB","9","23","1","517","1","Competent","0.5741004982345929708","0.9354609189237494959","0.7547807085791712334"
"120219","15:29:29","7","compatibletest2","9","targetBright","10","23","1","609","3","Omeelup","0.5741004982345929708","0.9366101478260132618","0.7553553230303031718"
"120219","15:29:29","7","compatibletest2","9","attributeA","11","18","0","820","4","Caring","0.5741004982345929708","0.8985512823616829126","0.7363258902981379972"
"120219","15:29:29","7","compatibletest2","9","targetBright","12","23","0","711","1","Maasolup","0.5741004982345929708","0.8867084724566800524","0.7304044853456365116"
"120219","15:29:29","7","compatibletest2","9","attributeA","13","18","0","651","1","Warm","0.5741004982345929708","0.8871545632570552176","0.7306275307458240942"
"120219","15:29:29","7","compatibletest2","9","targetBright","14","23","0","829","2","Neenolup","0.5741004982345929708","0.8597608446663249637","0.7169306714504589673"
"120219","15:29:29","7","compatibletest2","9","attributeA","15","18","0","637","1","Warm","0.5741004982345929708","0.8651314745892205726","0.7196159864119067162"
"120219","15:29:29","7","compatibletest2","9","targetBright","16","23","1","1847","1","Maasolup","0.5741004982345929708","0.642846007915879758","0.6084732530752363644"
"120219","15:29:29","7","compatibletest2","9","attributeA","17","18","0","929","3","Sociable","0.5741004982345929708","0.6165287151160675494","0.5953146066753303156"
"120219","15:29:29","7","compatibletest2","9","targetAleft","18","18","1","350","3","Lebbunif","0.5741004982345929708","0.6631467524195421293","0.6186236253270676055"
"120219","15:29:29","7","compatibletest2","9","attributeA","19","18","0","618","2","Nice","0.5741004982345929708","0.6774600460413925385","0.6257802721379928101"
"120219","15:29:29","7","compatibletest2","9","targetAleft","20","18","1","264","2","Eskannif","0.5741004982345929708","0.7232454960978617065","0.6486729971662272831"
"120219","15:29:29","7","compatibletest2","9","attributeA","21","18","1","369","4","Caring","0.5741004982345929708","0.7561572251292194569","0.6651288616819062138"
"120219","15:29:29","7","compatibletest2","9","targetAleft","22","18","1","349","3","Lebbunif","0.5741004982345929708","0.787519815344709162","0.6808101567896510664"
"120219","15:29:29","7","compatibletest2","9","attributeB","23","23","0","824","2","Intelligent","0.5741004982345929708","0.775247126842179668","0.6746738125383863194"
"120219","15:29:29","7","compatibletest2","9","targetAleft","24","18","0","728","1","Cellanif","0.5741004982345929708","0.773536178100306282","0.6738183381674496264"
"120219","15:29:29","7","compatibletest2","9","attributeB","25","23","0","651","1","Competent","0.5741004982345929708","0.7790478449255230364","0.6765741715800579481"
"120219","15:29:29","7","compatibletest2","9","targetBright","26","23","1","280","4","Wenaalup","0.5741004982345929708","0.8094608204098162618","0.6917806593222046718"
"120219","15:29:29","7","compatibletest2","9","attributeA","27","18","0","535","2","Nice","0.5741004982345929708","0.822380990448349003","0.6982407443414709869"
"120219","15:29:29","7","compatibletest2","9","targetAleft","28","18","0","212","4","Zallunif","0.5741004982345929708","0.8519504206176660155","0.7130254594261294931"
"120219","15:29:29","7","compatibletest2","9","attributeB","29","23","1","47","2","Intelligent","0.5741004982345929708","0.8842464412316739519","0.7291734697331334614"
"120219","15:29:29","7","compatibletest2","9","targetAleft","30","18","1","69","4","Zallunif","0.5741004982345929708","0.9131524026904525027","0.7436264504625227367"
"120219","15:29:29","7","compatibletest2","9","attributeA","31","18","0","226","4","Caring","0.5741004982345929708","0.9353457064906571805","0.7547231023626250757"
"120219","15:29:29","7","compatibletest2","9","targetAleft","32","18","0","226","3","Lebbunif","0.5741004982345929708","0.9560916845405098563","0.7650960913875514136"
"120219","15:29:29","7","compatibletest2","9","attributeA","33","18","1","90","3","Sociable","0.5741004982345929708","0.9789015732243443457","0.7765010357294686028"
"120219","15:29:29","7","compatibletest2","9","targetAleft","34","18","1","6","1","Cellanif","0.5741004982345929708","1.0014110296170950498","0.7877557639258440103"
"120219","15:29:29","7","compatibletest2","9","attributeA","35","18","1","0","1","Warm","0.5741004982345929708","1.0224119168907930266","0.7982562075626929987"
"120219","15:29:29","7","compatibletest2","9","targetBright","36","23","0","387","3","Omeelup","0.5741004982345929708","1.0329134124698913233","0.8035069553522421471"
"120219","15:29:29","7","compatibletest2","9","attributeB","37","23","0","242","3","Skillful","0.5741004982345929708","1.0475218658210878608","0.8108111820278404158"
"120219","15:29:29","7","compatibletest2","9","targetAleft","38","18","1","6","2","Eskannif","0.5741004982345929708","1.0652693934624342109","0.8196849458485135909"
"120219","15:29:29","7","compatibletest2","9","attributeB","39","23","1","37","4","Efficient","0.5741004982345929708","1.0817221863039359064","0.8279113422692644386"
"120219","15:29:29","7","compatibletest2","9","targetBright","40","23","0","183","2","Neenolup","0.5741004982345929708","1.0952563677603177617","0.8346784329974553662"
"120219","15:33:45","15","targetincompatiblepractice","1","targetBleft","2","18","1","1468","1","Maasolup","","","0"
"120219","15:33:45","15","targetincompatiblepractice","1","targetBleft","3","18","1","814","2","Neenolup","","","0"
"120219","15:33:45","15","targetincompatiblepractice","1","targetBleft","4","18","1","775","4","Wenaalup","","","0"
"120219","15:33:45","15","targetincompatiblepractice","1","targetAright","5","23","1","666","1","Cellanif","","","0"
"120219","15:33:45","15","targetincompatiblepractice","1","targetAright","6","23","1","1018","3","Lebbunif","","","0"
"120219","15:33:45","15","targetincompatiblepractice","1","targetAright","7","23","1","627","2","Eskannif","","","0"
"120219","15:33:45","15","targetincompatiblepractice","1","targetAright","8","23","1","549","4","Zallunif","","","0"
"120219","15:33:45","15","targetincompatiblepractice","1","targetAright","9","23","1","492","2","Eskannif","","","0"
"120219","15:33:45","15","targetincompatiblepractice","1","targetBleft","10","18","1","501","3","Omeelup","","","0"
"120219","15:33:45","15","targetincompatiblepractice","1","targetBleft","11","18","1","453","4","Wenaalup","","","0"
"120219","15:33:45","15","targetincompatiblepractice","1","targetBleft","12","18","1","461","2","Neenolup","","","0"
"120219","15:33:45","15","targetincompatiblepractice","1","targetAright","13","23","1","519","3","Lebbunif","","","0"
"120219","15:33:45","15","targetincompatiblepractice","1","targetAright","14","23","1","688","1","Cellanif","","","0"
"120219","15:33:45","15","targetincompatiblepractice","1","targetBleft","15","18","1","529","1","Maasolup","","","0"
"120219","15:33:45","15","targetincompatiblepractice","1","targetAright","16","23","1","538","4","Zallunif","","","0"
"120219","15:33:45","15","targetincompatiblepractice","1","targetAright","17","23","1","525","2","Eskannif","","","0"
"120219","15:33:45","15","targetincompatiblepractice","1","targetAright","18","23","1","474","1","Cellanif","","","0"
"120219","15:33:45","15","targetincompatiblepractice","1","targetBleft","19","18","1","442","3","Omeelup","","","0"
"120219","15:33:45","15","targetincompatiblepractice","1","targetBleft","20","18","1","705","1","Maasolup","","","0"
"120219","15:33:45","15","targetincompatiblepractice","1","targetBleft","21","18","1","489","4","Wenaalup","","","0"
"120219","15:33:45","15","attributepractice","2","attributeB","2","23","1","715","4","Efficient","","","0"
"120219","15:33:45","15","attributepractice","2","attributeB","3","23","1","647","2","Intelligent","","","0"
"120219","15:33:45","15","attributepractice","2","attributeB","4","23","1","640","1","Competent","","","0"
"120219","15:33:45","15","attributepractice","2","attributeA","5","18","1","486","1","Warm","","","0"
"120219","15:33:45","15","attributepractice","2","attributeB","6","23","1","651","3","Skillful","","","0"
"120219","15:33:45","15","attributepractice","2","attributeA","7","18","1","595","4","Caring","","","0"
"120219","15:33:45","15","attributepractice","2","attributeB","8","23","1","674","4","Efficient","","","0"
"120219","15:33:45","15","attributepractice","2","attributeA","9","18","1","589","2","Nice","","","0"
"120219","15:33:45","15","attributepractice","2","attributeB","10","23","1","583","3","Skillful","","","0"
"120219","15:33:45","15","attributepractice","2","attributeB","11","23","1","552","1","Competent","","","0"
"120219","15:33:45","15","attributepractice","2","attributeA","12","18","1","583","3","Sociable","","","0"
"120219","15:33:45","15","attributepractice","2","attributeB","13","23","1","588","2","Intelligent","","","0"
"120219","15:33:45","15","attributepractice","2","attributeA","14","18","1","603","4","Caring","","","0"
"120219","15:33:45","15","attributepractice","2","attributeA","15","18","0","1130","1","Warm","","","0"
"120219","15:33:45","15","attributepractice","2","attributeA","16","18","1","1115","3","Sociable","","","0"
"120219","15:33:45","15","attributepractice","2","attributeB","17","23","1","550","4","Efficient","","","0"
"120219","15:33:45","15","attributepractice","2","attributeA","18","18","1","701","2","Nice","","","0"
"120219","15:33:45","15","attributepractice","2","attributeB","19","23","1","677","2","Intelligent","","","0"
"120219","15:33:45","15","attributepractice","2","attributeA","20","18","1","968","3","Sociable","","","0"
"120219","15:33:45","15","attributepractice","2","attributeA","21","18","1","769","4","Caring","","","0"
"120219","15:33:45","15","incompatibletest1","3","attributeB","2","23","1","1578","1","Competent","","","0"
"120219","15:33:45","15","incompatibletest1","3","targetAright","3","23","1","848","4","Zallunif","1.2117074945220511761","","0.6058537472610255881"
"120219","15:33:45","15","incompatibletest1","3","attributeA","4","18","1","649","2","Nice","1.2880692835267950613","","0.6440346417633975307"
"120219","15:33:45","15","incompatibletest1","3","targetAright","5","23","1","788","3","Lebbunif","1.3875404210189452581","","0.693770210509472629"
"120219","15:33:45","15","incompatibletest1","3","attributeB","6","23","1","1154","3","Skillful","1.4926715680910067618","","0.7463357840455033809"
"120219","15:33:45","15","incompatibletest1","3","targetAright","7","23","1","700","2","Eskannif","1.5112775720098723387","","0.7556387860049361693"
"120219","15:33:45","15","incompatibletest1","3","attributeA","8","18","1","541","1","Warm","1.4866515780375366695","","0.7433257890187683348"
"120219","15:33:45","15","incompatibletest1","3","targetBleft","9","18","1","678","2","Neenolup","1.5075313675311670103","","0.7537656837655835051"
"120219","15:33:45","15","incompatibletest1","3","attributeA","10","18","1","1001","1","Warm","1.5535970552253746124","","0.7767985276126873062"
"120219","15:33:45","15","incompatibletest1","3","targetBleft","11","18","1","813","3","Omeelup","1.5840303670651005863","","0.7920151835325502931"
"120219","15:33:45","15","incompatibletest1","3","attributeB","12","23","1","627","3","Skillful","1.5866895909963203426","","0.7933447954981601713"
"120219","15:33:45","15","incompatibletest1","3","targetBleft","13","18","1","821","3","Omeelup","1.6124326627396814438","","0.8062163313698407219"
"120219","15:33:45","15","incompatibletest1","3","attributeA","14","18","1","699","4","Caring","1.6248768704380720518","","0.8124384352190360259"
"120219","15:33:45","15","incompatibletest1","3","targetAright","15","23","1","558","1","Cellanif","1.6176154739623871404","","0.8088077369811935702"
"120219","15:33:45","15","incompatibletest1","3","attributeB","16","23","1","673","4","Efficient","1.6277922252720895546","","0.8138961126360447773"
"120219","15:33:45","15","incompatibletest1","3","targetBleft","17","18","1","634","1","Maasolup","1.6336141986670902337","","0.8168070993335451169"
"120219","15:33:45","15","incompatibletest1","3","attributeB","18","23","0","1489","1","Competent","1.5864190377805309495","","0.7932095188902654748"
"120219","15:33:45","15","incompatibletest1","3","targetBleft","19","18","1","693","4","Wenaalup","1.5955673966432388777","","0.7977836983216194389"
"120219","15:33:45","15","incompatibletest1","3","attributeA","20","18","1","661","3","Sociable","1.6018208641227840161","","0.8009104320613920081"
"120219","15:33:45","15","incompatibletest1","3","targetAright","21","23","1","523","3","Lebbunif","1.5937863679101444969","","0.7968931839550722485"
"120219","15:33:45","15","incompatibletest2","5","attributeB","1","23","1","628","2","Intelligent","1.5937863679101444969","","0.7968931839550722485"
"120219","15:33:45","15","incompatibletest2","5","targetBleft","2","18","1","765","2","Neenolup","1.5937863679101444969","1.3876246929503777139","1.4907055304302612164"
"120219","15:33:45","15","incompatibletest2","5","attributeA","3","18","1","655","2","Nice","1.5937863679101444969","1.6089311611764309795","1.6013587645432876272"
"120219","15:33:45","15","incompatibletest2","5","targetBleft","4","18","1","608","3","Omeelup","1.5937863679101444969","1.703852841599694079","1.648819604754919288"
"120219","15:33:45","15","incompatibletest2","5","attributeA","5","18","1","629","2","Nice","1.5937863679101444969","1.7633926588357755616","1.6785895133729600293"
"120219","15:33:45","15","incompatibletest2","5","targetBleft","6","18","1","578","1","Maasolup","1.5937863679101444969","1.7958171853557276521","1.6948017766329361855"
"120219","15:33:45","15","incompatibletest2","5","attributeB","7","23","1","613","1","Competent","1.5937863679101444969","1.8241732341043386256","1.7089798010072416723"
"120219","15:33:45","15","incompatibletest2","5","targetBleft","8","18","1","612","4","Wenaalup","1.5937863679101444969","1.8454894767448504211","1.7196379223274975701"
"120219","15:33:45","15","incompatibletest2","5","attributeB","9","23","1","765","3","Skillful","1.5937863679101444969","1.8498457189999857331","1.721816043455065115"
"120219","15:33:45","15","incompatibletest2","5","targetAright","10","23","1","665","4","Zallunif","1.5937863679101444969","1.8648570994739865903","1.7293217336920654326"
"120219","15:33:45","15","incompatibletest2","5","attributeB","11","23","1","859","4","Efficient","1.5937863679101444969","1.8506362133595402053","1.7222112906348423511"
"120219","15:33:45","15","incompatibletest2","5","targetAright","12","23","1","620","4","Zallunif","1.5937863679101444969","1.8606661697451982729","1.7272262688276713849"
"120219","15:33:45","15","incompatibletest2","5","attributeA","13","18","1","939","1","Warm","1.5937863679101444969","1.8355093064721552665","1.7146478371911499927"
"120219","15:33:45","15","incompatibletest2","5","targetBleft","14","18","1","541","2","Neenolup","1.5937863679101444969","1.8340094483778086598","1.7138979081439766894"
"120219","15:33:45","15","incompatibletest2","5","attributeB","15","23","1","589","2","Intelligent","1.5937863679101444969","1.8395143795048483071","1.716650373707496513"
"120219","15:33:45","15","incompatibletest2","5","targetBleft","16","18","1","987","3","Omeelup","1.5937863679101444969","1.813372262431806492","1.7035793151709754945"
"120219","15:33:45","15","incompatibletest2","5","attributeA","17","18","1","749","4","Caring","1.5937863679101444969","1.8233334275905446198","1.7085598977503444473"
"120219","15:33:45","15","incompatibletest2","5","targetBleft","18","18","1","647","2","Neenolup","1.5937863679101444969","1.8308876929561626046","1.7123370304331535507"
"120219","15:33:45","15","incompatibletest2","5","attributeA","19","18","1","839","3","Sociable","1.5937863679101444969","1.8341088926411350801","1.7139476302756397885"
"120219","15:33:45","15","incompatibletest2","5","targetAright","20","23","1","517","1","Cellanif","1.5937863679101444969","1.8284483534006199523","1.7111173606553822246"
"120219","15:33:45","15","incompatibletest2","5","attributeB","21","23","1","490","2","Intelligent","1.5937863679101444969","1.8204655747024007795","1.7071259713062727492"
"120219","15:33:45","15","incompatibletest2","5","targetAright","22","23","1","584","3","Lebbunif","1.5937863679101444969","1.8236320019412080029","1.7087091849256763609"
"120219","15:33:45","15","incompatibletest2","5","attributeB","23","23","1","541","1","Competent","1.5937863679101444969","1.8232693710240353013","1.7085278694670900101"
"120219","15:33:45","15","incompatibletest2","5","targetBleft","24","18","1","593","1","Maasolup","1.5937863679101444969","1.8271677627965503543","1.7104770653533474256"
"120219","15:33:45","15","incompatibletest2","5","attributeA","25","18","1","569","3","Sociable","1.5937863679101444969","1.8294495692789727315","1.7116179685945587252"
"120219","15:33:45","15","incompatibletest2","5","targetBleft","26","18","1","669","4","Wenaalup","1.5937863679101444969","1.8355198641912224833","1.7146531160506834901"
"120219","15:33:45","15","incompatibletest2","5","attributeB","27","23","1","504","3","Skillful","1.5937863679101444969","1.8323824504478252173","1.7130844091789847461"
"120219","15:33:45","15","incompatibletest2","5","targetAright","28","23","1","605","2","Eskannif","1.5937863679101444969","1.8364894039336525644","1.7151378859218984196"
"120219","15:33:45","15","incompatibletest2","5","attributeA","29","18","1","613","2","Nice","1.5937863679101444969","1.8406903077519742862","1.7172383378310593915"
"120219","15:33:45","15","incompatibletest2","5","targetBleft","30","18","1","672","1","Maasolup","1.5937863679101444969","1.8456856796554113043","1.7197360237827779006"
"120219","15:33:45","15","incompatibletest2","5","attributeB","31","23","1","564","4","Efficient","1.5937863679101444969","1.847326453517349476","1.7205564107137469865"
"120219","15:33:45","15","incompatibletest2","5","targetAright","32","23","1","709","2","Eskannif","1.5937863679101444969","1.8515417071875650556","1.7226640375488546653"
"120219","15:33:45","15","incompatibletest2","5","attributeB","33","23","0","1076","1","Competent","1.5937863679101444969","1.8217319728769938436","1.7077591703935692813"
"120219","15:33:45","15","incompatibletest2","5","targetAright","34","23","1","794","3","Lebbunif","1.5937863679101444969","1.8246453594122336028","1.7092158636611891609"
"120219","15:33:45","15","incompatibletest2","5","attributeA","35","18","1","545","4","Caring","1.5937863679101444969","1.824724187876904935","1.709255277893524827"
"120219","15:33:45","15","incompatibletest2","5","targetAright","36","23","1","821","4","Zallunif","1.5937863679101444969","1.8262453180513928963","1.7100158429807685856"
"120219","15:33:45","15","incompatibletest2","5","attributeA","37","18","1","820","1","Warm","1.5937863679101444969","1.8279538995305646409","1.71087013372035468"
"120219","15:33:45","15","incompatibletest2","5","targetAright","38","23","1","748","1","Cellanif","1.5937863679101444969","1.8318109451575579349","1.7127986565338511049"
"120219","15:33:45","15","incompatibletest2","5","attributeA","39","18","1","848","2","Nice","1.5937863679101444969","1.8323088504157174494","1.7130476091629309732"
"120219","15:33:45","15","incompatibletest2","5","targetAright","40","23","1","464","4","Zallunif","1.5937863679101444969","1.8261696201146666585","1.7099779940124055777"
"120219","15:33:45","15","targetcompatiblepracticeswitch","6","targetBright","2","23","1","683","4","Wenaalup","1.5937863679101444969","1.8261696201146666585","1.7099779940124055777"
"120219","15:33:45","15","targetcompatiblepracticeswitch","6","targetBright","3","23","1","740","2","Neenolup","1.5937863679101444969","1.8261696201146666585","1.7099779940124055777"
"120219","15:33:45","15","targetcompatiblepracticeswitch","6","targetBright","4","23","1","564","3","Omeelup","1.5937863679101444969","1.8261696201146666585","1.7099779940124055777"
"120219","15:33:45","15","targetcompatiblepracticeswitch","6","targetAleft","5","18","1","545","2","Eskannif","1.5937863679101444969","1.8261696201146666585","1.7099779940124055777"
"120219","15:33:45","15","targetcompatiblepracticeswitch","6","targetAleft","6","18","1","502","1","Cellanif","1.5937863679101444969","1.8261696201146666585","1.7099779940124055777"
"120219","15:33:45","15","targetcompatiblepracticeswitch","6","targetBright","7","23","1","580","2","Neenolup","1.5937863679101444969","1.8261696201146666585","1.7099779940124055777"
"120219","15:33:45","15","targetcompatiblepracticeswitch","6","targetAleft","8","18","1","487","3","Lebbunif","1.5937863679101444969","1.8261696201146666585","1.7099779940124055777"
"120219","15:33:45","15","targetcompatiblepracticeswitch","6","targetBright","9","23","1","687","3","Omeelup","1.5937863679101444969","1.8261696201146666585","1.7099779940124055777"
"120219","15:33:45","15","targetcompatiblepracticeswitch","6","targetBright","10","23","1","452","4","Wenaalup","1.5937863679101444969","1.8261696201146666585","1.7099779940124055777"
"120219","15:33:45","15","targetcompatiblepracticeswitch","6","targetBright","11","23","1","584","1","Maasolup","1.5937863679101444969","1.8261696201146666585","1.7099779940124055777"
"120219","15:33:45","15","targetcompatiblepracticeswitch","6","targetAleft","12","18","1","488","2","Eskannif","1.5937863679101444969","1.8261696201146666585","1.7099779940124055777"
"120219","15:33:45","15","targetcompatiblepracticeswitch","6","targetAleft","13","18","1","393","3","Lebbunif","1.5937863679101444969","1.8261696201146666585","1.7099779940124055777"
"120219","15:33:45","15","targetcompatiblepracticeswitch","6","targetBright","14","23","1","540","3","Omeelup","1.5937863679101444969","1.8261696201146666585","1.7099779940124055777"
"120219","15:33:45","15","targetcompatiblepracticeswitch","6","targetBright","15","23","1","508","1","Maasolup","1.5937863679101444969","1.8261696201146666585","1.7099779940124055777"
"120219","15:33:45","15","targetcompatiblepracticeswitch","6","targetAleft","16","18","1","434","4","Zallunif","1.5937863679101444969","1.8261696201146666585","1.7099779940124055777"
"120219","15:33:45","15","targetcompatiblepracticeswitch","6","targetBright","17","23","1","556","4","Wenaalup","1.5937863679101444969","1.8261696201146666585","1.7099779940124055777"
"120219","15:33:45","15","targetcompatiblepracticeswitch","6","targetAleft","18","18","1","547","1","Cellanif","1.5937863679101444969","1.8261696201146666585","1.7099779940124055777"
"120219","15:33:45","15","targetcompatiblepracticeswitch","6","targetAleft","19","18","1","502","2","Eskannif","1.5937863679101444969","1.8261696201146666585","1.7099779940124055777"
"120219","15:33:45","15","targetcompatiblepracticeswitch","6","targetBright","20","23","1","502","2","Neenolup","1.5937863679101444969","1.8261696201146666585","1.7099779940124055777"
"120219","15:33:45","15","targetcompatiblepracticeswitch","6","targetBright","21","23","1","561","2","Neenolup","1.5937863679101444969","1.8261696201146666585","1.7099779940124055777"
"120219","15:33:45","15","targetcompatiblepracticeswitch","6","targetBright","22","23","1","466","3","Omeelup","1.5937863679101444969","1.8261696201146666585","1.7099779940124055777"
"120219","15:33:45","15","targetcompatiblepracticeswitch","6","targetAleft","23","18","1","600","3","Lebbunif","1.5937863679101444969","1.8261696201146666585","1.7099779940124055777"
"120219","15:33:45","15","targetcompatiblepracticeswitch","6","targetBright","24","23","1","501","4","Wenaalup","1.5937863679101444969","1.8261696201146666585","1.7099779940124055777"
"120219","15:33:45","15","targetcompatiblepracticeswitch","6","targetAleft","25","18","1","457","4","Zallunif","1.5937863679101444969","1.8261696201146666585","1.7099779940124055777"
"120219","15:33:45","15","targetcompatiblepracticeswitch","6","targetAleft","26","18","1","530","1","Cellanif","1.5937863679101444969","1.8261696201146666585","1.7099779940124055777"
"120219","15:33:45","15","targetcompatiblepracticeswitch","6","targetBright","27","23","1","406","1","Maasolup","1.5937863679101444969","1.8261696201146666585","1.7099779940124055777"
"120219","15:33:45","15","targetcompatiblepracticeswitch","6","targetAleft","28","18","1","451","1","Cellanif","1.5937863679101444969","1.8261696201146666585","1.7099779940124055777"
"120219","15:33:45","15","targetcompatiblepracticeswitch","6","targetAleft","29","18","1","428","3","Lebbunif","1.5937863679101444969","1.8261696201146666585","1.7099779940124055777"
"120219","15:33:45","15","targetcompatiblepracticeswitch","6","targetAleft","30","18","1","514","4","Zallunif","1.5937863679101444969","1.8261696201146666585","1.7099779940124055777"
"120219","15:33:45","15","targetcompatiblepracticeswitch","6","targetBright","31","23","1","421","1","Maasolup","1.5937863679101444969","1.8261696201146666585","1.7099779940124055777"
"120219","15:33:45","15","targetcompatiblepracticeswitch","6","targetAleft","32","18","1","471","2","Eskannif","1.5937863679101444969","1.8261696201146666585","1.7099779940124055777"
"120219","15:33:45","15","targetcompatiblepracticeswitch","6","targetAleft","33","18","1","448","1","Cellanif","1.5937863679101444969","1.8261696201146666585","1.7099779940124055777"
"120219","15:33:45","15","targetcompatiblepracticeswitch","6","targetBright","34","23","1","543","4","Wenaalup","1.5937863679101444969","1.8261696201146666585","1.7099779940124055777"
"120219","15:33:45","15","targetcompatiblepracticeswitch","6","targetBright","35","23","1","666","2","Neenolup","1.5937863679101444969","1.8261696201146666585","1.7099779940124055777"
"120219","15:33:45","15","targetcompatiblepracticeswitch","6","targetBright","36","23","1","400","3","Omeelup","1.5937863679101444969","1.8261696201146666585","1.7099779940124055777"
"120219","15:33:45","15","targetcompatiblepracticeswitch","6","targetAleft","37","18","1","401","3","Lebbunif","1.5937863679101444969","1.8261696201146666585","1.7099779940124055777"
"120219","15:33:45","15","targetcompatiblepracticeswitch","6","targetAleft","38","18","1","457","4","Zallunif","1.5937863679101444969","1.8261696201146666585","1.7099779940124055777"
"120219","15:33:45","15","targetcompatiblepracticeswitch","6","targetBright","39","23","1","443","1","Maasolup","1.5937863679101444969","1.8261696201146666585","1.7099779940124055777"
"120219","15:33:45","15","targetcompatiblepracticeswitch","6","targetAleft","40","18","1","425","2","Eskannif","1.5937863679101444969","1.8261696201146666585","1.7099779940124055777"
"120219","15:33:45","15","targetcompatiblepracticeswitch","6","targetAleft","41","18","1","380","1","Cellanif","1.5937863679101444969","1.8261696201146666585","1.7099779940124055777"
"120219","15:33:45","15","compatibletest1","7","attributeB","2","23","0","1954","4","Efficient","-1.757571523514783518","1.8261696201146666585","0.0342990482999415702"
"120219","15:33:45","15","compatibletest1","7","targetBright","3","23","1","2409","2","Neenolup","-1.8103522660071922346","1.8261696201146666585","0.007908677053737212"
"120219","15:33:45","15","compatibletest1","7","attributeB","4","23","1","1280","3","Skillful","-1.6897264645020226848","1.8261696201146666585","0.0682215778063219869"
"120219","15:33:45","15","compatibletest1","7","targetAleft","5","18","1","1754","3","Lebbunif","-1.6864058753018613679","1.8261696201146666585","0.0698818724064026453"
"120219","15:33:45","15","compatibletest1","7","attributeA","6","18","1","1489","3","Sociable","-1.6543820300650942112","1.8261696201146666585","0.0858937950247862236"
"120219","15:33:45","15","compatibletest1","7","targetAleft","7","18","1","1607","2","Eskannif","-1.6484620727575989285","1.8261696201146666585","0.088853773678533865"
"120219","15:33:45","15","compatibletest1","7","attributeA","8","18","1","1243","4","Caring","-1.5960524942215861266","1.8261696201146666585","0.1150585629465402659"
"120219","15:33:45","15","compatibletest1","7","targetBright","9","23","0","1403","4","Wenaalup","-1.5783042690335888913","1.8261696201146666585","0.1239326755405388836"
"120219","15:33:45","15","compatibletest1","7","attributeB","10","23","1","1196","2","Intelligent","-1.5355606709741560501","1.8261696201146666585","0.1453044745702553042"
"120219","15:33:45","15","compatibletest1","7","targetAleft","11","18","1","1208","4","Zallunif","-1.5022059098116153919","1.8261696201146666585","0.1619818551515256333"
"120219","15:33:45","15","compatibletest1","7","attributeA","12","18","1","1058","1","Warm","-1.4502626162249518948","1.8261696201146666585","0.1879535019448573818"
"120219","15:33:45","15","compatibletest1","7","targetAleft","13","18","1","1055","3","Lebbunif","-1.4050045565414841509","1.8261696201146666585","0.2105825317865912538"
"120219","15:33:45","15","compatibletest1","7","attributeB","14","23","1","878","1","Competent","-1.3341289476924020896","1.8261696201146666585","0.2460203362111322845"
"120219","15:33:45","15","compatibletest1","7","targetBright","15","23","1","1010","3","Omeelup","-1.2944427907816942191","1.8261696201146666585","0.2658634146664862197"
"120219","15:33:45","15","compatibletest1","7","attributeA","16","18","1","1163","4","Caring","-1.2812210902887097852","1.8261696201146666585","0.2724742649129784366"
"120219","15:33:45","15","compatibletest1","7","targetBright","17","23","1","978","1","Maasolup","-1.2447901058914982997","1.8261696201146666585","0.2906897571115841794"
"120219","15:33:45","15","compatibletest1","7","attributeB","18","23","1","1283","3","Skillful","-1.2492532506585685148","1.8261696201146666585","0.2884581847280490718"
"120219","15:33:45","15","compatibletest1","7","targetBright","19","23","1","879","2","Neenolup","-1.2037665938851411784","1.8261696201146666585","0.31120151311476274"
"120219","15:33:45","15","compatibletest1","7","attributeA","20","18","1","1233","3","Sociable","-1.2062211175115613582","1.8261696201146666585","0.3099742513015526502"
"120219","15:33:45","15","compatibletest1","7","targetAleft","21","18","1","780","1","Cellanif","-1.1516710923078488094","1.8261696201146666585","0.3372492639034089246"
"120219","15:33:45","15","compatibletest2","9","attributeB","1","23","1","885","2","Intelligent","-1.1516710923078488094","-1.1964208994477969483","-1.1740459958778228788"
"120219","15:33:45","15","compatibletest2","9","targetBright","2","23","1","792","3","Omeelup","-1.1516710923078488094","-1.0134229441120534698","-1.0825470182099512506"
"120219","15:33:45","15","compatibletest2","9","attributeB","3","23","1","1343","4","Efficient","-1.1516710923078488094","-1.4709044351668094652","-1.3112877637373290263"
"120219","15:33:45","15","compatibletest2","9","targetBright","4","23","1","1404","4","Wenaalup","-1.1516710923078488094","-1.6015903202177448339","-1.3766307062627967106"
"120219","15:33:45","15","compatibletest2","9","attributeA","5","18","1","737","2","Nice","-1.1516710923078488094","-1.4648327810262249393","-1.3082519366670368743"
"120219","15:33:45","15","compatibletest2","9","targetBright","6","23","1","663","2","Neenolup","-1.1516710923078488094","-1.3073272387195067346","-1.229499165513677772"
"120219","15:33:45","15","compatibletest2","9","attributeA","7","18","1","818","1","Warm","-1.1516710923078488094","-1.2527345513481071837","-1.2022028218279778855"
"120219","15:33:45","15","compatibletest2","9","targetBright","8","23","1","592","3","Omeelup","-1.1516710923078488094","-1.0946003111195727886","-1.123135701713710688"
"120219","15:33:45","15","compatibletest2","9","attributeA","9","18","1","871","2","Nice","-1.1516710923078488094","-1.0900185129813819707","-1.12084480264461539"
"120219","15:33:45","15","compatibletest2","9","targetAleft","10","18","1","679","4","Zallunif","-1.1516710923078488094","-1.0080450822782685005","-1.079858087293058766"
"120219","15:33:45","15","compatibletest2","9","attributeB","11","23","1","721","4","Efficient","-1.1516710923078488094","-0.9556923524225705568","-1.0536817223652097386"
"120219","15:33:45","15","compatibletest2","9","targetBright","12","23","1","649","4","Wenaalup","-1.1516710923078488094","-0.8806542593790582796","-1.0161626758434536555"
"120219","15:33:45","15","compatibletest2","9","attributeB","13","23","1","1337","2","Intelligent","-1.1516710923078488094","-0.9837129216767437345","-1.0676920069922961609"
"120219","15:33:45","15","compatibletest2","9","targetBright","14","23","1","837","1","Maasolup","-1.1516710923078488094","-0.978351679614318126","-1.0650113859610834677"
"120219","15:33:45","15","compatibletest2","9","attributeB","15","23","1","842","1","Competent","-1.1516710923078488094","-0.975663964738457179","-1.0636675285231529386"
"120219","15:33:45","15","compatibletest2","9","targetAleft","16","18","1","600","2","Eskannif","-1.1516710923078488094","-0.9022551484406904354","-1.0269631203742695114"
"120219","15:33:45","15","compatibletest2","9","attributeB","17","23","1","607","3","Skillful","-1.1516710923078488094","-0.8380594822986618952","-0.9948652873032552968"
"120219","15:33:45","15","compatibletest2","9","targetBright","18","23","1","792","3","Omeelup","-1.1516710923078488094","-0.8314943667926983917","-0.9915827295502736005"
"120219","15:33:45","15","compatibletest2","9","attributeA","19","18","1","1256","3","Sociable","-1.1516710923078488094","-0.8945824543749232305","-1.0231267733413860199"
"120219","15:33:45","15","compatibletest2","9","targetAleft","20","18","1","610","4","Zallunif","-1.1516710923078488094","-0.841261601366903311","-0.9964663468373760047"
"120219","15:33:45","15","compatibletest2","9","attributeB","21","23","1","651","4","Efficient","-1.1516710923078488094","-0.8028435193961375171","-0.9772573058519931077"
"120219","15:33:45","15","compatibletest2","9","targetAleft","22","18","0","1345","1","Cellanif","-1.1516710923078488094","-0.8603533966302042701","-1.0060122444690264842"
"120219","15:33:45","15","compatibletest2","9","attributeA","23","18","1","865","1","Warm","-1.1516710923078488094","-0.8660568147025945462","-1.0088639535052217333"
"120219","15:33:45","15","compatibletest2","9","targetBright","24","23","1","675","1","Maasolup","-1.1516710923078488094","-0.8369519284073556609","-0.9943115103576022351"
"120219","15:33:45","15","compatibletest2","9","attributeA","25","18","1","922","4","Caring","-1.1516710923078488094","-0.8516689497709721834","-1.0016700210394104964"
"120219","15:33:45","15","compatibletest2","9","targetAleft","26","18","1","752","2","Eskannif","-1.1516710923078488094","-0.8396958582506494073","-0.9956834752792491638"
"120219","15:33:45","15","compatibletest2","9","attributeA","27","18","1","735","2","Nice","-1.1516710923078488094","-0.825727075806191757","-0.9886990840570202277"
"120219","15:33:45","15","compatibletest2","9","targetAleft","28","18","1","1365","3","Lebbunif","-1.1516710923078488094","-0.865773478140824948","-1.0087222852243369342"
"120219","15:33:45","15","compatibletest2","9","attributeA","29","18","1","850","1","Warm","-1.1516710923078488094","-0.8685052751293190765","-1.0100881837185839984"
"120219","15:33:45","15","compatibletest2","9","targetAleft","30","18","1","706","1","Cellanif","-1.1516710923078488094","-0.8504153959130628104","-1.0010432441104557544"
"120219","15:33:45","15","compatibletest2","9","attributeB","31","23","1","663","1","Competent","-1.1516710923078488094","-0.8263717506800926094","-0.9890214214939707649"
"120219","15:33:45","15","compatibletest2","9","targetBright","32","23","1","531","2","Neenolup","-1.1516710923078488094","-0.7800507124745258425","-0.9658609023911872704"
"120219","15:33:45","15","compatibletest2","9","attributeB","33","23","1","708","2","Intelligent","-1.1516710923078488094","-0.7661925926795308817","-0.958931842493689901"
"120219","15:33:45","15","compatibletest2","9","targetAleft","34","18","1","668","4","Zallunif","-1.1516710923078488094","-0.7471499583418617085","-0.9494105253248552589"
"120219","15:33:45","15","compatibletest2","9","attributeA","35","18","1","1086","3","Sociable","-1.1516710923078488094","-0.7729099832755211841","-0.9622905377916850522"
"120219","15:33:45","15","compatibletest2","9","targetAleft","36","18","1","931","3","Lebbunif","-1.1516710923078488094","-0.7858757870082738739","-0.9687734396580613971"
"120219","15:33:45","15","compatibletest2","9","attributeA","37","18","1","870","4","Caring","-1.1516710923078488094","-0.7926541891854252952","-0.9721626407466370523"
"120219","15:33:45","15","compatibletest2","9","targetBright","38","23","1","534","4","Wenaalup","-1.1516710923078488094","-0.7543221031569186108","-0.9529965977323837656"
"120219","15:33:45","15","compatibletest2","9","attributeB","39","23","1","982","3","Skillful","-1.1516710923078488094","-0.7708496019405911559","-0.9612603471242200381"
"120219","15:33:45","15","compatibletest2","9","targetAleft","40","18","1","777","2","Eskannif","-1.1516710923078488094","-0.7680958233443884176","-0.9598834578261186135"
"120219","15:38:36","20","targetincompatiblepractice","1","targetBleft","2","18","1","4361","1","Maasolup","","","0"
"120219","15:38:36","20","targetincompatiblepractice","1","targetAright","3","23","1","1483","4","Zallunif","","","0"
"120219","15:38:36","20","targetincompatiblepractice","1","targetAright","4","23","1","2280","1","Cellanif","","","0"
"120219","15:38:36","20","targetincompatiblepractice","1","targetAright","5","23","1","2217","3","Lebbunif","","","0"
"120219","15:38:36","20","targetincompatiblepractice","1","targetBleft","6","18","1","1029","3","Omeelup","","","0"
"120219","15:38:36","20","targetincompatiblepractice","1","targetBleft","7","18","1","873","2","Neenolup","","","0"
"120219","15:38:36","20","targetincompatiblepractice","1","targetBleft","8","18","1","1452","4","Wenaalup","","","0"
"120219","15:38:36","20","targetincompatiblepractice","1","targetAright","9","23","1","1231","2","Eskannif","","","0"
"120219","15:38:36","20","targetincompatiblepractice","1","targetBleft","10","18","1","9109","1","Maasolup","","","0"
"120219","15:38:36","20","targetincompatiblepractice","1","targetAright","11","23","1","5392","3","Lebbunif","","","0"
"120219","15:38:36","20","targetincompatiblepractice","1","targetAright","12","23","1","1649","4","Zallunif","","","0"
"120219","15:38:36","20","targetincompatiblepractice","1","targetAright","13","23","1","1342","1","Cellanif","","","0"
"120219","15:38:36","20","targetincompatiblepractice","1","targetAright","14","23","1","865","2","Eskannif","","","0"
"120219","15:38:36","20","targetincompatiblepractice","1","targetAright","15","23","1","997","1","Cellanif","","","0"
"120219","15:38:36","20","targetincompatiblepractice","1","targetBleft","16","18","1","703","3","Omeelup","","","0"
"120219","15:38:36","20","targetincompatiblepractice","1","targetBleft","17","18","1","621","4","Wenaalup","","","0"
"120219","15:38:36","20","targetincompatiblepractice","1","targetBleft","18","18","1","841","2","Neenolup","","","0"
"120219","15:38:36","20","targetincompatiblepractice","1","targetBleft","19","18","1","568","1","Maasolup","","","0"
"120219","15:38:36","20","targetincompatiblepractice","1","targetAright","20","23","1","899","3","Lebbunif","","","0"
"120219","15:38:36","20","targetincompatiblepractice","1","targetBleft","21","18","1","560","2","Neenolup","","","0"
"120219","15:38:36","20","attributepractice","2","attributeB","2","23","1","3942","1","Competent","","","0"
"120219","15:38:36","20","attributepractice","2","attributeA","3","18","1","3532","2","Nice","","","0"
"120219","15:38:36","20","attributepractice","2","attributeA","4","18","1","2572","4","Caring","","","0"
"120219","15:38:36","20","attributepractice","2","attributeB","5","23","1","1773","2","Intelligent","","","0"
"120219","15:38:36","20","attributepractice","2","attributeB","6","23","1","1713","4","Efficient","","","0"
"120219","15:38:36","20","attributepractice","2","attributeA","7","18","1","1376","1","Warm","","","0"
"120219","15:38:36","20","attributepractice","2","attributeA","8","18","0","6230","3","Sociable","","","0"
"120219","15:38:36","20","attributepractice","2","attributeA","9","18","0","2474","4","Caring","","","0"
"120219","15:38:36","20","attributepractice","2","attributeB","10","23","1","1857","3","Skillful","","","0"
"120219","15:38:36","20","attributepractice","2","attributeB","11","23","1","863","4","Efficient","","","0"
"120219","15:38:36","20","attributepractice","2","attributeB","12","23","1","851","1","Competent","","","0"
"120219","15:38:36","20","attributepractice","2","attributeA","13","18","1","936","2","Nice","","","0"
"120219","15:38:36","20","attributepractice","2","attributeA","14","18","0","1814","3","Sociable","","","0"
"120219","15:38:36","20","attributepractice","2","attributeB","15","23","1","1470","2","Intelligent","","","0"
"120219","15:38:36","20","attributepractice","2","attributeA","16","18","1","959","1","Warm","","","0"
"120219","15:38:36","20","attributepractice","2","attributeB","17","23","1","1267","3","Skillful","","","0"
"120219","15:38:36","20","attributepractice","2","attributeB","18","23","1","987","4","Efficient","","","0"
"120219","15:38:36","20","attributepractice","2","attributeA","19","18","1","807","2","Nice","","","0"
"120219","15:38:36","20","attributepractice","2","attributeB","20","23","1","1094","3","Skillful","","","0"
"120219","15:38:36","20","attributepractice","2","attributeA","21","18","1","834","1","Warm","","","0"
"120219","15:38:36","20","incompatibletest1","3","attributeB","2","23","1","6530","2","Intelligent","","","0"
"120219","15:38:36","20","incompatibletest1","3","targetBleft","3","18","1","10338","4","Wenaalup","","","0"
"120219","15:38:36","20","incompatibletest1","3","attributeA","4","18","1","2322","3","Sociable","1.024922367016226854","","0.512461183508113427"
"120219","15:38:36","20","incompatibletest1","3","targetBleft","5","18","1","1912","3","Omeelup","1.0644868322886220646","","0.5322434161443110323"
"120219","15:38:36","20","incompatibletest1","3","attributeA","6","18","1","1346","4","Caring","1.0283357352503479376","","0.5141678676251739688"
"120219","15:38:36","20","incompatibletest1","3","targetAright","7","23","1","1476","2","Eskannif","1.0271571222485846864","","0.5135785611242923432"
"120219","15:38:36","20","incompatibletest1","3","attributeB","8","23","1","1285","1","Competent","1.017171814883697456","","0.508585907441848728"
"120219","15:38:36","20","incompatibletest1","3","targetAright","9","23","1","1181","4","Zallunif","1.0069425017187783045","","0.5034712508593891522"
"120219","15:38:36","20","incompatibletest1","3","attributeA","10","18","1","830","1","Warm","0.9764389086698800346","","0.4882194543349400173"
"120219","15:38:36","20","incompatibletest1","3","targetBleft","11","18","1","1061","4","Wenaalup","0.9712218553593829906","","0.4856109276796914953"
"120219","15:38:36","20","incompatibletest1","3","attributeB","12","23","1","991","4","Efficient","0.965187728183803495","","0.4825938640919017475"
"120219","15:38:36","20","incompatibletest1","3","targetBleft","13","18","1","2905","3","Omeelup","1.026037095655842446","","0.513018547827921223"
"120219","15:38:36","20","incompatibletest1","3","attributeA","14","18","1","1915","3","Sociable","1.0599917802749032614","","0.5299958901374516307"
"120219","15:38:36","20","incompatibletest1","3","targetAright","15","23","1","1116","2","Eskannif","1.0586174394166436574","","0.5293087197083218287"
"120219","15:38:36","20","incompatibletest1","3","attributeB","16","23","1","1658","1","Competent","1.0812908963250427163","","0.5406454481625213582"
"120219","15:38:36","20","incompatibletest1","3","targetAright","17","23","1","986","4","Zallunif","1.0752244083884203718","","0.5376122041942101859"
"120219","15:38:36","20","incompatibletest1","3","attributeB","18","23","1","1045","2","Intelligent","1.0737038181301321593","","0.5368519090650660797"
"120219","15:38:36","20","incompatibletest1","3","targetAright","19","23","1","1357","3","Lebbunif","1.0855843556354209944","","0.5427921778177104972"
"120219","15:38:36","20","incompatibletest1","3","attributeA","20","18","0","1278","2","Nice","1.0945458997218804331","","0.5472729498609402166"
"120219","15:38:36","20","incompatibletest1","3","targetBleft","21","18","1","1488","1","Maasolup","1.1101597982429918243","","0.5550798991214959122"
"120219","15:38:36","20","incompatibletest2","5","attributeA","1","18","1","1987","4","Caring","1.1101597982429918243","","0.5550798991214959122"
"120219","15:38:36","20","incompatibletest2","5","targetAright","2","23","1","1968","1","Cellanif","1.1101597982429918243","1.4141482900376629583","1.2621540441403273913"
"120219","15:38:36","20","incompatibletest2","5","attributeA","3","18","1","3801","2","Nice","1.1101597982429918243","1.3597688811996004876","1.234964339721296156"
"120219","15:38:36","20","incompatibletest2","5","targetBleft","4","18","1","1396","2","Neenolup","1.1101597982429918243","1.3582540027725553688","1.2342069005077735966"
"120219","15:38:36","20","incompatibletest2","5","attributeA","5","18","1","768","1","Warm","1.1101597982429918243","1.2518861397316829454","1.1810229689873374959"
"120219","15:38:36","20","incompatibletest2","5","targetAright","6","23","1","1065","3","Lebbunif","1.1101597982429918243","1.2423995252148867241","1.1762796617289392742"
"120219","15:38:36","20","incompatibletest2","5","attributeB","7","23","1","914","3","Skillful","1.1101597982429918243","1.2221544547871920905","1.1661571265150918464"
"120219","15:38:36","20","incompatibletest2","5","targetAright","8","23","1","1633","1","Cellanif","1.1101597982429918243","1.2772620680474142674","1.1937109331452031569"
"120219","15:38:36","20","incompatibletest2","5","attributeA","9","18","1","1313","4","Caring","1.1101597982429918243","1.3038368042447876505","1.2069983012438898484"
"120219","15:38:36","20","incompatibletest2","5","targetBleft","10","18","1","1138","3","Omeelup","1.1101597982429918243","1.3146072425531312167","1.2123835203980615205"
"120219","15:38:36","20","incompatibletest2","5","attributeB","11","23","1","1419","3","Skillful","1.1101597982429918243","1.3452825990450649751","1.2277211986440283997"
"120219","15:38:36","20","incompatibletest2","5","targetAright","12","23","1","1278","2","Eskannif","1.1101597982429918243","1.3652534730321352896","1.237706635637563668"
"120219","15:38:36","20","incompatibletest2","5","attributeA","13","18","1","1195","3","Sociable","1.1101597982429918243","1.3790625225713506463","1.2446111604071712353"
"120219","15:38:36","20","incompatibletest2","5","targetBleft","14","18","1","2794","2","Neenolup","1.1101597982429918243","1.3832100304609202812","1.2466849143519560528"
"120219","15:38:36","20","incompatibletest2","5","attributeB","15","23","1","1875","4","Efficient","1.1101597982429918243","1.4142999338360549011","1.2622298660395232517"
"120219","15:38:36","20","incompatibletest2","5","targetAright","16","23","0","2185","4","Zallunif","1.1101597982429918243","1.4415490346313977188","1.2758544164371947716"
"120219","15:38:36","20","incompatibletest2","5","attributeB","17","23","1","1394","1","Competent","1.1101597982429918243","1.4549619370463939827","1.2825608676446929035"
"120219","15:38:36","20","incompatibletest2","5","targetAright","18","23","1","1168","4","Zallunif","1.1101597982429918243","1.4574399623140696924","1.2837998802785306474"
"120219","15:38:36","20","incompatibletest2","5","attributeA","19","18","0","1108","4","Caring","1.1101597982429918243","1.4574638360794136549","1.2838118171612027396"
"120219","15:38:36","20","incompatibletest2","5","targetBleft","20","18","1","1212","4","Wenaalup","1.1101597982429918243","1.4633300513076876737","1.286744924775339749"
"120219","15:38:36","20","incompatibletest2","5","attributeB","21","23","1","1167","2","Intelligent","1.1101597982429918243","1.467404687473192304","1.2887822428580921752"
"120219","15:38:36","20","incompatibletest2","5","targetBleft","22","18","1","640","1","Maasolup","1.1101597982429918243","1.440905429607957311","1.2755326139254745677"
"120219","15:38:36","20","incompatibletest2","5","attributeB","23","23","1","951","1","Competent","1.1101597982429918243","1.4368201924873988951","1.2734899953651952487"
"120219","15:38:36","20","incompatibletest2","5","targetAright","24","23","0","1393","1","Cellanif","1.1101597982429918243","1.450033888331501597","1.2800968432872465996"
"120219","15:38:36","20","incompatibletest2","5","attributeA","25","18","1","1755","3","Sociable","1.1101597982429918243","1.4671772514172884971","1.2886685248301401607"
"120219","15:38:36","20","incompatibletest2","5","targetAright","26","23","1","1780","3","Lebbunif","1.1101597982429918243","1.4833007580960593241","1.2967302781695255742"
"120219","15:38:36","20","incompatibletest2","5","attributeA","27","18","1","1808","1","Warm","1.1101597982429918243","1.4984594090164178315","1.3043096036297048279"
"120219","15:38:36","20","incompatibletest2","5","targetBleft","28","18","1","1016","1","Maasolup","1.1101597982429918243","1.4965478507920864093","1.3033538245175391168"
"120219","15:38:36","20","incompatibletest2","5","attributeB","29","23","1","1698","2","Intelligent","1.1101597982429918243","1.5102130806121103479","1.3101864394275510861"
"120219","15:38:36","20","incompatibletest2","5","targetAright","30","23","1","895","2","Eskannif","1.1101597982429918243","1.5033641130938368846","1.3067619556684144655"
"120219","15:38:36","20","incompatibletest2","5","attributeB","31","23","1","985","3","Skillful","1.1101597982429918243","1.5011092503056888692","1.3056345242743403468"
"120219","15:38:36","20","incompatibletest2","5","targetBleft","32","18","1","924","3","Omeelup","1.1101597982429918243","1.4969572324711757361","1.3035585153570838912"
"120219","15:38:36","20","incompatibletest2","5","attributeB","33","23","1","888","4","Efficient","1.1101597982429918243","1.4919634557705772071","1.3010616270067845157"
"120219","15:38:36","20","incompatibletest2","5","targetBleft","34","18","1","933","2","Neenolup","1.1101597982429918243","1.4893367337661889138","1.2997482660045904801"
"120219","15:38:36","20","incompatibletest2","5","attributeB","35","23","1","956","3","Skillful","1.1101597982429918243","1.4879797318072380818","1.2990697650251150641"
"120219","15:38:36","20","incompatibletest2","5","targetBleft","36","18","1","1060","4","Wenaalup","1.1101597982429918243","1.4902534421170940959","1.3002066201800430711"
"120219","15:38:36","20","incompatibletest2","5","attributeA","37","18","0","1470","2","Nice","1.1101597982429918243","1.5002709098679034572","1.3052153540554476407"
"120219","15:38:36","20","incompatibletest2","5","targetAright","38","23","1","1266","2","Eskannif","1.1101597982429918243","1.5071618952915977196","1.308660846767294661"
"120219","15:38:36","20","incompatibletest2","5","attributeA","39","18","1","1495","4","Caring","1.1101597982429918243","1.5166814057998327936","1.313420602021412309"
"120219","15:38:36","20","incompatibletest2","5","targetBleft","40","18","1","2086","4","Wenaalup","1.1101597982429918243","1.5221036454218428435","1.3161317218324173339"
"120219","15:38:36","20","targetcompatiblepracticeswitch","6","targetAleft","2","18","1","1371","4","Zallunif","1.1101597982429918243","1.5221036454218428435","1.3161317218324173339"
"120219","15:38:36","20","targetcompatiblepracticeswitch","6","targetAleft","3","18","1","964","3","Lebbunif","1.1101597982429918243","1.5221036454218428435","1.3161317218324173339"
"120219","15:38:36","20","targetcompatiblepracticeswitch","6","targetBright","4","23","1","655","1","Maasolup","1.1101597982429918243","1.5221036454218428435","1.3161317218324173339"
"120219","15:38:36","20","targetcompatiblepracticeswitch","6","targetBright","5","23","1","1286","3","Omeelup","1.1101597982429918243","1.5221036454218428435","1.3161317218324173339"
"120219","15:38:36","20","targetcompatiblepracticeswitch","6","targetAleft","6","18","1","1108","1","Cellanif","1.1101597982429918243","1.5221036454218428435","1.3161317218324173339"
"120219","15:38:36","20","targetcompatiblepracticeswitch","6","targetAleft","7","18","1","655","1","Cellanif","1.1101597982429918243","1.5221036454218428435","1.3161317218324173339"
"120219","15:38:36","20","targetcompatiblepracticeswitch","6","targetAleft","8","18","1","1057","4","Zallunif","1.1101597982429918243","1.5221036454218428435","1.3161317218324173339"
"120219","15:38:36","20","targetcompatiblepracticeswitch","6","targetBright","9","23","1","724","2","Neenolup","1.1101597982429918243","1.5221036454218428435","1.3161317218324173339"
"120219","15:38:36","20","targetcompatiblepracticeswitch","6","targetBright","10","23","1","1046","4","Wenaalup","1.1101597982429918243","1.5221036454218428435","1.3161317218324173339"
"120219","15:38:36","20","targetcompatiblepracticeswitch","6","targetAleft","11","18","1","1818","2","Eskannif","1.1101597982429918243","1.5221036454218428435","1.3161317218324173339"
"120219","15:38:36","20","targetcompatiblepracticeswitch","6","targetBright","12","23","1","2306","2","Neenolup","1.1101597982429918243","1.5221036454218428435","1.3161317218324173339"
"120219","15:38:36","20","targetcompatiblepracticeswitch","6","targetBright","13","23","1","813","1","Maasolup","1.1101597982429918243","1.5221036454218428435","1.3161317218324173339"
"120219","15:38:36","20","targetcompatiblepracticeswitch","6","targetAleft","14","18","1","923","3","Lebbunif","1.1101597982429918243","1.5221036454218428435","1.3161317218324173339"
"120219","15:38:36","20","targetcompatiblepracticeswitch","6","targetAleft","15","18","0","1261","2","Eskannif","1.1101597982429918243","1.5221036454218428435","1.3161317218324173339"
"120219","15:38:36","20","targetcompatiblepracticeswitch","6","targetBright","16","23","1","1108","3","Omeelup","1.1101597982429918243","1.5221036454218428435","1.3161317218324173339"
"120219","15:38:36","20","targetcompatiblepracticeswitch","6","targetAleft","17","18","1","981","3","Lebbunif","1.1101597982429918243","1.5221036454218428435","1.3161317218324173339"
"120219","15:38:36","20","targetcompatiblepracticeswitch","6","targetBright","18","23","1","815","1","Maasolup","1.1101597982429918243","1.5221036454218428435","1.3161317218324173339"
"120219","15:38:36","20","targetcompatiblepracticeswitch","6","targetBright","19","23","1","862","4","Wenaalup","1.1101597982429918243","1.5221036454218428435","1.3161317218324173339"
"120219","15:38:36","20","targetcompatiblepracticeswitch","6","targetAleft","20","18","1","956","1","Cellanif","1.1101597982429918243","1.5221036454218428435","1.3161317218324173339"
"120219","15:38:36","20","targetcompatiblepracticeswitch","6","targetBright","21","23","1","1051","2","Neenolup","1.1101597982429918243","1.5221036454218428435","1.3161317218324173339"
"120219","15:38:36","20","targetcompatiblepracticeswitch","6","targetAleft","22","18","1","1452","4","Zallunif","1.1101597982429918243","1.5221036454218428435","1.3161317218324173339"
"120219","15:38:36","20","targetcompatiblepracticeswitch","6","targetAleft","23","18","0","1448","2","Eskannif","1.1101597982429918243","1.5221036454218428435","1.3161317218324173339"
"120219","15:38:36","20","targetcompatiblepracticeswitch","6","targetBright","24","23","1","755","3","Omeelup","1.1101597982429918243","1.5221036454218428435","1.3161317218324173339"
"120219","15:38:36","20","targetcompatiblepracticeswitch","6","targetBright","25","23","1","992","1","Maasolup","1.1101597982429918243","1.5221036454218428435","1.3161317218324173339"
"120219","15:38:36","20","targetcompatiblepracticeswitch","6","targetAleft","26","18","1","772","4","Zallunif","1.1101597982429918243","1.5221036454218428435","1.3161317218324173339"
"120219","15:38:36","20","targetcompatiblepracticeswitch","6","targetBright","27","23","1","868","3","Omeelup","1.1101597982429918243","1.5221036454218428435","1.3161317218324173339"
"120219","15:38:36","20","targetcompatiblepracticeswitch","6","targetBright","28","23","1","711","4","Wenaalup","1.1101597982429918243","1.5221036454218428435","1.3161317218324173339"
"120219","15:38:36","20","targetcompatiblepracticeswitch","6","targetAleft","29","18","1","888","1","Cellanif","1.1101597982429918243","1.5221036454218428435","1.3161317218324173339"
"120219","15:38:36","20","targetcompatiblepracticeswitch","6","targetBright","30","23","1","881","2","Neenolup","1.1101597982429918243","1.5221036454218428435","1.3161317218324173339"
"120219","15:38:36","20","targetcompatiblepracticeswitch","6","targetAleft","31","18","1","1141","3","Lebbunif","1.1101597982429918243","1.5221036454218428435","1.3161317218324173339"
"120219","15:38:36","20","targetcompatiblepracticeswitch","6","targetAleft","32","18","1","1806","2","Eskannif","1.1101597982429918243","1.5221036454218428435","1.3161317218324173339"
"120219","15:38:36","20","targetcompatiblepracticeswitch","6","targetBright","33","23","1","748","3","Omeelup","1.1101597982429918243","1.5221036454218428435","1.3161317218324173339"
"120219","15:38:36","20","targetcompatiblepracticeswitch","6","targetAleft","34","18","1","769","4","Zallunif","1.1101597982429918243","1.5221036454218428435","1.3161317218324173339"
"120219","15:38:36","20","targetcompatiblepracticeswitch","6","targetAleft","35","18","1","1052","3","Lebbunif","1.1101597982429918243","1.5221036454218428435","1.3161317218324173339"
"120219","15:38:36","20","targetcompatiblepracticeswitch","6","targetAleft","36","18","1","1032","1","Cellanif","1.1101597982429918243","1.5221036454218428435","1.3161317218324173339"
"120219","15:38:36","20","targetcompatiblepracticeswitch","6","targetBright","37","23","1","771","2","Neenolup","1.1101597982429918243","1.5221036454218428435","1.3161317218324173339"
"120219","15:38:36","20","targetcompatiblepracticeswitch","6","targetBright","38","23","0","1711","4","Wenaalup","1.1101597982429918243","1.5221036454218428435","1.3161317218324173339"
"120219","15:38:36","20","targetcompatiblepracticeswitch","6","targetBright","39","23","1","1367","1","Maasolup","1.1101597982429918243","1.5221036454218428435","1.3161317218324173339"
"120219","15:38:36","20","targetcompatiblepracticeswitch","6","targetAleft","40","18","1","1030","2","Eskannif","1.1101597982429918243","1.5221036454218428435","1.3161317218324173339"
"120219","15:38:36","20","targetcompatiblepracticeswitch","6","targetBright","41","23","1","779","4","Wenaalup","1.1101597982429918243","1.5221036454218428435","1.3161317218324173339"
"120219","15:38:36","20","compatibletest1","7","attributeB","2","23","1","3540","2","Intelligent","-1.1732112742867060184","1.5221036454218428435","0.1744461855675684125"
"120219","15:38:36","20","compatibletest1","7","targetBright","3","23","1","3457","1","Maasolup","-1.1756308271084432437","1.5221036454218428435","0.1732364091566997999"
"120219","15:38:36","20","compatibletest1","7","attributeA","4","18","1","1957","3","Sociable","-0.9215607433911123803","1.5221036454218428435","0.3002714510153652316"
"120219","15:38:36","20","compatibletest1","7","targetAleft","5","18","0","5407","4","Zallunif","-1.1800269475629818761","1.5221036454218428435","0.1710383489294304837"
"120219","15:38:36","20","compatibletest1","7","attributeA","6","18","1","2163","1","Warm","-1.0555035341800005355","1.5221036454218428435","0.233300055620921154"
"120219","15:38:36","20","compatibletest1","7","targetBright","7","23","1","917","3","Omeelup","-0.8194899246686406791","1.5221036454218428435","0.3513068603766010822"
"120219","15:38:36","20","compatibletest1","7","attributeA","8","18","1","4045","2","Nice","-0.9141063651134220258","1.5221036454218428435","0.3039986401542104089"
"120219","15:38:36","20","compatibletest1","7","targetAleft","9","18","1","6325","3","Lebbunif","-1.0500592080990360788","1.5221036454218428435","0.2360222186614033824"
"120219","15:38:36","20","compatibletest1","7","attributeB","10","23","1","2248","1","Competent","-0.9945434619361661621","1.5221036454218428435","0.2637800917428383407"
"120219","15:38:36","20","compatibletest1","7","targetAleft","11","18","0","3587","1","Cellanif","-1.0190675989245037147","1.5221036454218428435","0.2515180232486695644"
"120219","15:38:36","20","compatibletest1","7","attributeB","12","23","1","3637","4","Efficient","-1.0430474926697685945","1.5221036454218428435","0.2395280763760371245"
"120219","15:38:36","20","compatibletest1","7","targetAleft","13","18","1","1679","3","Lebbunif","-0.9712904348232569429","1.5221036454218428435","0.2754066052992929503"
"120219","15:38:36","20","compatibletest1","7","attributeB","14","23","1","1748","3","Skillful","-0.9131142376451170106","1.5221036454218428435","0.3044947038883629165"
"120219","15:38:36","20","compatibletest1","7","targetBright","15","23","1","2853","2","Neenolup","-0.9139693191020070717","1.5221036454218428435","0.3040671631599178859"
"120219","15:38:36","20","compatibletest1","7","attributeA","16","18","1","2395","1","Warm","-0.8971656556092533208","1.5221036454218428435","0.3124689949062947614"
"120219","15:38:36","20","compatibletest1","7","targetAleft","17","18","0","1713","4","Zallunif","-0.8520653509337560161","1.5221036454218428435","0.3350191472440434137"
"120219","15:38:36","20","compatibletest1","7","attributeA","18","18","1","987","2","Nice","-0.775738506818498097","1.5221036454218428435","0.3731825693016723733"
"120219","15:38:36","20","compatibletest1","7","targetBright","19","23","1","1012","2","Neenolup","-0.7090303235299957318","1.5221036454218428435","0.4065366609459235558"
"120219","15:38:36","20","compatibletest1","7","attributeB","20","23","0","1241","4","Efficient","-0.6595568062093911665","1.5221036454218428435","0.4312734196062258385"
"120219","15:38:36","20","compatibletest1","7","targetBright","21","23","1","825","4","Wenaalup","-0.5968129149869149108","1.5221036454218428435","0.4626453652174639664"
"120219","15:38:36","20","compatibletest2","9","attributeB","1","23","1","1396","2","Intelligent","-0.5968129149869149108","0.0399194659629575482","-0.2784467245119786605"
"120219","15:38:36","20","compatibletest2","9","targetAleft","2","18","1","1264","2","Eskannif","-0.5968129149869149108","0.1538005470432674826","-0.2215061839718237002"
"120219","15:38:36","20","compatibletest2","9","attributeB","3","23","1","844","1","Competent","-0.5968129149869149108","0.4262376627928064488","-0.085287626097054231"
"120219","15:38:36","20","compatibletest2","9","targetBright","4","23","0","1722","1","Maasolup","-0.5968129149869149108","0.1957876087352534988","-0.2005126531258307199"
"120219","15:38:36","20","compatibletest2","9","attributeA","5","18","1","3337","4","Caring","-0.5968129149869149108","-0.4529956361262146847","-0.5249042755565648255"
"120219","15:38:36","20","compatibletest2","9","targetAleft","6","18","0","1652","1","Cellanif","-0.5968129149869149108","-0.4428416628831573498","-0.5198272889350361581"
"120219","15:38:36","20","compatibletest2","9","attributeA","7","18","1","1757","3","Sociable","-0.5968129149869149108","-0.4591131991520473465","-0.5279630570694811009"
"120219","15:38:36","20","compatibletest2","9","targetAleft","8","18","1","1680","1","Cellanif","-0.5968129149869149108","-0.4580898887745218362","-0.5274514018807183735"
"120219","15:38:36","20","compatibletest2","9","attributeA","9","18","1","1211","3","Sociable","-0.5968129149869149108","-0.3752875397231136834","-0.4860502273550142971"
"120219","15:38:36","20","compatibletest2","9","targetAleft","10","18","1","1046","4","Zallunif","-0.5968129149869149108","-0.2799424298765263441","-0.4383776724317206552"
"120219","15:38:36","20","compatibletest2","9","attributeA","11","18","1","1284","2","Nice","-0.5968129149869149108","-0.236896888889041396","-0.4168549019379781395"
"120219","15:38:36","20","compatibletest2","9","targetBright","12","23","1","1103","3","Omeelup","-0.5968129149869149108","-0.1750176671519524385","-0.3859152910694336747"
"120219","15:38:36","20","compatibletest2","9","attributeB","13","23","0","1718","3","Skillful","-0.5968129149869149108","-0.2012531930662307678","-0.3990330540265728532"
"120219","15:38:36","20","compatibletest2","9","targetAleft","14","18","0","2811","3","Lebbunif","-0.5968129149869149108","-0.3397133160307843069","-0.4682631155088495811"
"120219","15:38:36","20","compatibletest2","9","attributeA","15","18","1","975","4","Caring","-0.5968129149869149108","-0.270656329931340589","-0.4337346224591277499"
"120219","15:38:36","20","compatibletest2","9","targetBright","16","23","1","2726","1","Maasolup","-0.5968129149869149108","-0.3749290082700764137","-0.4858709616284956345"
"120219","15:38:36","20","compatibletest2","9","attributeB","17","23","1","2804","1","Competent","-0.5968129149869149108","-0.4670295903275933913","-0.5319212526572540956"
"120219","15:38:36","20","compatibletest2","9","targetAleft","18","18","1","1651","2","Eskannif","-0.5968129149869149108","-0.4648979725699227683","-0.5308554437784188673"
"120219","15:38:36","20","compatibletest2","9","attributeB","19","23","1","2814","4","Efficient","-0.5968129149869149108","-0.5394196181014909719","-0.5681162665442029969"
"120219","15:38:36","20","compatibletest2","9","targetAleft","20","18","0","2701","3","Lebbunif","-0.5968129149869149108","-0.5981735416957052465","-0.5974932283413101342"
"120219","15:38:36","20","compatibletest2","9","attributeB","21","23","1","1175","2","Intelligent","-0.5968129149869149108","-0.5564047660073377921","-0.5766088404971263515"
"120219","15:38:36","20","compatibletest2","9","targetBright","22","23","1","1499","2","Neenolup","-0.5968129149869149108","-0.5412870212293182659","-0.5690499681081165884"
"120219","15:38:36","20","compatibletest2","9","attributeA","23","18","1","819","1","Warm","-0.5968129149869149108","-0.4784047289140997972","-0.5376088219505072985"
"120219","15:38:36","20","compatibletest2","9","targetBright","24","23","1","829","3","Omeelup","-0.5968129149869149108","-0.4215355072527158242","-0.509174211119815423"
"120219","15:38:36","20","compatibletest2","9","attributeA","25","18","1","984","1","Warm","-0.5968129149869149108","-0.3797856171018648697","-0.4882992660443898902"
"120219","15:38:36","20","compatibletest2","9","targetAleft","26","18","1","1306","2","Eskannif","-0.5968129149869149108","-0.3612160470062242279","-0.4790144809965695694"
"120219","15:38:36","20","compatibletest2","9","attributeA","27","18","1","2380","3","Sociable","-0.5968129149869149108","-0.3995874547617003225","-0.4982001848743076167"
"120219","15:38:36","20","compatibletest2","9","targetBright","28","23","0","3114","4","Wenaalup","-0.5968129149869149108","-0.4607354731385809865","-0.5287741940627479487"
"120219","15:38:36","20","compatibletest2","9","attributeB","29","23","1","7825","4","Efficient","-0.5968129149869149108","-0.517040822582578663","-0.5569268687847468424"
"120219","15:38:36","20","compatibletest2","9","targetAleft","30","18","0","4815","4","Zallunif","-0.5968129149869149108","-0.5761389298587789032","-0.5864759224228468515"
"120219","15:38:36","20","compatibletest2","9","attributeB","31","23","1","727","1","Competent","-0.5968129149869149108","-0.5378570545742417108","-0.5673349847805783108"
"120219","15:38:36","20","compatibletest2","9","targetBright","32","23","1","1327","4","Wenaalup","-0.5968129149869149108","-0.5217654117531448366","-0.5592891633700298737"
"120219","15:38:36","20","compatibletest2","9","attributeB","33","23","1","3709","2","Intelligent","-0.5968129149869149108","-0.5608030335612486095","-0.5788079742740817046"
"120219","15:38:36","20","compatibletest2","9","targetBright","34","23","1","859","3","Omeelup","-0.5968129149869149108","-0.5307719233602748998","-0.5637924191735949053"
"120219","15:38:36","20","compatibletest2","9","attributeB","35","23","1","1911","3","Skillful","-0.5968129149869149108","-0.5320275778749754547","-0.5644202464309451273"
"120219","15:38:36","20","compatibletest2","9","targetBright","36","23","1","778","1","Maasolup","-0.5968129149869149108","-0.501775723949343444","-0.5492943194681292329"
"120219","15:38:36","20","compatibletest2","9","attributeA","37","18","0","1254","4","Caring","-0.5968129149869149108","-0.4868096438446775642","-0.5418112794157962098"
"120219","15:38:36","20","compatibletest2","9","targetBright","38","23","1","977","2","Neenolup","-0.5968129149869149108","-0.4649136500900224456","-0.530863282538468706"
"120219","15:38:36","20","compatibletest2","9","attributeA","39","18","1","1171","2","Nice","-0.5968129149869149108","-0.4493135687339434026","-0.5230632418604291844"
"120219","15:38:36","20","compatibletest2","9","targetAleft","40","18","1","2605","1","Cellanif","-0.5968129149869149108","-0.4666261510578549876","-0.5317195330223849492"
"120219","15:45:47","36","targetincompatiblepractice","1","targetBleft","2","18","1","4997","2","Neenolup","","","0"
"120219","15:45:47","36","targetincompatiblepractice","1","targetBleft","3","18","1","3781","3","Omeelup","","","0"
"120219","15:45:47","36","targetincompatiblepractice","1","targetAright","4","23","1","1195","3","Lebbunif","","","0"
"120219","15:45:47","36","targetincompatiblepractice","1","targetBleft","5","18","1","2044","4","Wenaalup","","","0"
"120219","15:45:47","36","targetincompatiblepractice","1","targetBleft","6","18","1","895","1","Maasolup","","","0"
"120219","15:45:47","36","targetincompatiblepractice","1","targetBleft","7","18","1","1091","3","Omeelup","","","0"
"120219","15:45:47","36","targetincompatiblepractice","1","targetAright","8","23","1","844","4","Zallunif","","","0"
"120219","15:45:47","36","targetincompatiblepractice","1","targetBleft","9","18","1","1706","1","Maasolup","","","0"
"120219","15:45:47","36","targetincompatiblepractice","1","targetBleft","10","18","0","7767","4","Wenaalup","","","0"
"120219","15:45:47","36","targetincompatiblepractice","1","targetAright","11","23","1","1254","2","Eskannif","","","0"
"120219","15:45:47","36","targetincompatiblepractice","1","targetAright","12","23","1","1331","1","Cellanif","","","0"
"120219","15:45:47","36","targetincompatiblepractice","1","targetAright","13","23","1","1345","2","Eskannif","","","0"
"120219","15:45:47","36","targetincompatiblepractice","1","targetAright","14","23","1","1013","3","Lebbunif","","","0"
"120219","15:45:47","36","targetincompatiblepractice","1","targetBleft","15","18","1","594","2","Neenolup","","","0"
"120219","15:45:47","36","targetincompatiblepractice","1","targetAright","16","23","1","888","4","Zallunif","","","0"
"120219","15:45:47","36","targetincompatiblepractice","1","targetAright","17","23","1","1003","1","Cellanif","","","0"
"120219","15:45:47","36","targetincompatiblepractice","1","targetAright","18","23","1","1597","3","Lebbunif","","","0"
"120219","15:45:47","36","targetincompatiblepractice","1","targetBleft","19","18","1","827","2","Neenolup","","","0"
"120219","15:45:47","36","targetincompatiblepractice","1","targetBleft","20","18","1","1089","3","Omeelup","","","0"
"120219","15:45:47","36","targetincompatiblepractice","1","targetAright","21","23","1","921","1","Cellanif","","","0"
"120219","15:45:47","36","attributepractice","2","attributeB","2","23","1","1429","2","Intelligent","","","0"
"120219","15:45:47","36","attributepractice","2","attributeA","3","18","1","1213","3","Sociable","","","0"
"120219","15:45:47","36","attributepractice","2","attributeA","4","18","1","1589","2","Nice","","","0"
"120219","15:45:47","36","attributepractice","2","attributeB","5","23","1","920","3","Skillful","","","0"
"120219","15:45:47","36","attributepractice","2","attributeB","6","23","1","642","4","Efficient","","","0"
"120219","15:45:47","36","attributepractice","2","attributeA","7","18","1","623","1","Warm","","","0"
"120219","15:45:47","36","attributepractice","2","attributeB","8","23","1","762","1","Competent","","","0"
"120219","15:45:47","36","attributepractice","2","attributeA","9","18","1","991","4","Caring","","","0"
"120219","15:45:47","36","attributepractice","2","attributeA","10","18","1","630","1","Warm","","","0"
"120219","15:45:47","36","attributepractice","2","attributeB","11","23","1","628","1","Competent","","","0"
"120219","15:45:47","36","attributepractice","2","attributeB","12","23","1","853","4","Efficient","","","0"
"120219","15:45:47","36","attributepractice","2","attributeB","13","23","1","815","3","Skillful","","","0"
"120219","15:45:47","36","attributepractice","2","attributeA","14","18","1","643","4","Caring","","","0"
"120219","15:45:47","36","attributepractice","2","attributeB","15","23","1","754","2","Intelligent","","","0"
"120219","15:45:47","36","attributepractice","2","attributeA","16","18","1","821","2","Nice","","","0"
"120219","15:45:47","36","attributepractice","2","attributeB","17","23","1","727","2","Intelligent","","","0"
"120219","15:45:47","36","attributepractice","2","attributeB","18","23","1","696","1","Competent","","","0"
"120219","15:45:47","36","attributepractice","2","attributeA","19","18","1","928","3","Sociable","","","0"
"120219","15:45:47","36","attributepractice","2","attributeA","20","18","1","606","3","Sociable","","","0"
"120219","15:45:47","36","attributepractice","2","attributeA","21","18","1","1272","2","Nice","","","0"
"120219","15:45:47","36","incompatibletest1","3","attributeA","2","18","1","1039","4","Caring","","","0"
"120219","15:45:47","36","incompatibletest1","3","targetBleft","3","18","1","1936","4","Wenaalup","1.2110587915527881719","","0.605529395776394086"
"120219","15:45:47","36","incompatibletest1","3","attributeA","4","18","1","755","1","Warm","1.2691644724065718197","","0.6345822362032859099"
"120219","15:45:47","36","incompatibletest1","3","targetBleft","5","18","1","1087","1","Maasolup","1.3972220390046572458","","0.6986110195023286229"
"120219","15:45:47","36","incompatibletest1","3","attributeB","6","23","1","666","4","Efficient","1.3834336919699938839","","0.691716845984996942"
