"date","time","subject","blockcode","blocknum","trialcode","trialnum","response","correct","latency","stimulusnumber1","stimulusitem1","expressions.da","expressions.db","expressions.d"
"120219","16:14:42","1","targetcompatiblepractice","1","targetBright","2","Ctrl+'B'","1","492","1","Maasolup","","","0"
"120219","16:14:42","1","compatibletest2","5","attributeB","1","Ctrl+'B'","1","275","2","Intelligent","","","0"
"120219","16:14:42","1","incompatibletest2","9","attributeB","1","Ctrl+'B'","1","418","3","Skillful","","1.4142135623730949234","0.7071067811865474617"
"120219","15:27:06","5","targetcompatiblepractice","1","targetBright","2","23","0","220502","1","Maasolup","","","0"
"120219","15:27:06","5","targetcompatiblepractice","1","targetAleft","3","18","1","7712","3","Lebbunif","","","0"
"120219","15:27:06","5","targetcompatiblepractice","1","targetAleft","4","18","0","801","2","Eskannif","","","0"
"120219","15:27:06","5","targetcompatiblepractice","1","targetAleft","5","18","1","662","4","Zallunif","","","0"
"120219","15:27:06","5","targetcompatiblepractice","1","targetBright","6","23","0","625","3","Omeelup","","","0"
"120219","15:27:06","5","targetcompatiblepractice","1","targetBright","7","23","0","549","4","Wenaalup","","","0"
"120219","15:27:06","5","targetcompatiblepractice","1","targetBright","8","23","0","92","2","Neenolup","","","0"
"120219","15:27:06","5","targetcompatiblepractice","1","targetBright","9","23","1","149","3","Omeelup","","","0"
"120219","15:27:06","5","targetcompatiblepractice","1","targetBright","10","23","1","228","4","Wenaalup","","","0"
"120219","15:27:06","5","targetcompatiblepractice","1","targetBright","11","23","0","777","1","Maasolup","","","0"
"120219","15:27:06","5","targetcompatiblepractice","1","targetAleft","12","18","0","743","1","Cellanif","","","0"
"120219","15:27:06","5","targetcompatiblepractice","1","targetAleft","13","18","0","334","4","Zallunif","","","0"
"120219","15:27:06","5","targetcompatiblepractice","1","targetBright","14","23","1","318","2","Neenolup","","","0"
"120219","15:27:06","5","targetcompatiblepractice","1","targetBright","15","23","1","174","2","Neenolup","","","0"
"120219","15:27:06","5","targetcompatiblepractice","1","targetAleft","16","18","0","877","1","Cellanif","","","0"
"120219","15:27:06","5","targetcompatiblepractice","1","targetAleft","17","18","0","391","2","Eskannif","","","0"
"120219","15:27:06","5","targetcompatiblepractice","1","targetAleft","18","18","0","52","3","Lebbunif","","","0"
"120219","15:27:06","5","targetcompatiblepractice","1","targetAleft","19","18","1","159","3","Lebbunif","","","0"
"120219","15:27:06","5","targetcompatiblepractice","1","targetAleft","20","18","0","374","1","Cellanif","","","0"
"120219","15:27:06","5","targetcompatiblepractice","1","targetBright","21","23","1","60","4","Wenaalup","","","0"
"120219","15:27:06","5","attributepractice","2","attributeB","2","23","0","1107","1","Competent","","","0"
"120219","15:27:06","5","attributepractice","2","attributeA","3","18","0","948","1","Warm","","","0"
"120219","15:27:06","5","attributepractice","2","attributeB","4","23","1","163","3","Skillful","","","0"
"120219","15:27:06","5","attributepractice","2","attributeA","5","18","1","243","2","Nice","","","0"
"120219","15:27:06","5","attributepractice","2","attributeA","6","18","0","855","4","Caring","","","0"
"120219","15:27:06","5","attributepractice","2","attributeA","7","18","1","178","3","Sociable","","","0"
"120219","15:27:06","5","attributepractice","2","attributeB","8","23","0","272","4","Efficient","","","0"
"120219","15:27:06","5","attributepractice","2","attributeA","9","18","0","266","1","Warm","","","0"
"120219","15:27:06","5","attributepractice","2","attributeB","10","23","1","76","2","Intelligent","","","0"
"120219","15:27:06","5","attributepractice","2","attributeA","11","18","1","103","2","Nice","","","0"
"120219","15:27:06","5","attributepractice","2","attributeA","12","18","0","200","3","Sociable","","","0"
"120219","15:27:06","5","attributepractice","2","attributeB","13","23","1","84","3","Skillful","","","0"
"120219","15:27:06","5","attributepractice","2","attributeB","14","23","0","231","2","Intelligent","","","0"
"120219","15:27:06","5","attributepractice","2","attributeB","15","23","0","243","1","Competent","","","0"
"120219","15:27:06","5","attributepractice","2","attributeB","16","23","0","222","4","Efficient","","","0"
"120219","15:27:06","5","attributepractice","2","attributeA","17","18","1","90","4","Caring","","","0"
"120219","15:27:06","5","attributepractice","2","attributeA","18","18","1","4","1","Warm","","","0"
"120219","15:27:06","5","attributepractice","2","attributeA","19","18","1","9","3","Sociable","","","0"
"120219","15:27:06","5","attributepractice","2","attributeB","20","23","1","103","2","Intelligent","","","0"
"120219","15:27:06","5","attributepractice","2","attributeB","21","23","1","24","3","Skillful","","","0"
"120219","15:27:06","5","compatibletest1","3","attributeA","2","18","1","220","4","Caring","","","0"
"120219","15:27:06","5","compatibletest1","3","targetBright","3","23","0","257","1","Maasolup","-1.3974965891939243878","","-0.6987482945969621939"
"120219","15:27:06","5","compatibletest1","3","attributeA","4","18","1","99","2","Nice","-1.3360098380322777967","","-0.6680049190161388983"
"120219","15:27:06","5","compatibletest1","3","targetAleft","5","18","0","181","2","Eskannif","-1.4723530904968926691","","-0.7361765452484463346"
"120219","15:27:06","5","compatibletest1","3","attributeB","6","23","1","107","1","Competent","-1.4541354451311732099","","-0.7270677225655866049"
"120219","15:27:06","5","compatibletest1","3","targetBright","7","23","0","236","3","Omeelup","-1.5182552841440710711","","-0.7591276420720355356"
"120219","15:27:06","5","compatibletest1","3","attributeA","8","18","1","39","1","Warm","-1.353773669872825991","","-0.6768868349364129955"
"120219","15:27:06","5","compatibletest1","3","targetBright","9","23","1","147","3","Omeelup","-1.4003421942121061505","","-0.7001710971060530753"
"120219","15:27:06","5","compatibletest1","3","attributeA","10","18","0","91","3","Sociable","-1.3855074818006927195","","-0.6927537409003463598"
"120219","15:27:06","5","compatibletest1","3","targetBright","11","23","1","148","1","Maasolup","-1.425177456844471946","","-0.712588728422235973"
"120219","15:27:06","5","compatibletest1","3","attributeB","12","23","0","292","4","Efficient","-1.4079920446074667417","","-0.7039960223037333709"
"120219","15:27:06","5","compatibletest1","3","targetAleft","13","18","1","77","4","Zallunif","-1.3772685657041097151","","-0.6886342828520548576"
"120219","15:27:06","5","compatibletest1","3","attributeB","14","23","0","184","4","Efficient","-1.413775530954723525","","-0.7068877654773617625"
"120219","15:27:06","5","compatibletest1","3","targetAleft","15","18","0","149","1","Cellanif","-1.4382079010742525593","","-0.7191039505371262797"
"120219","15:27:06","5","compatibletest1","3","attributeA","16","18","0","268","2","Nice","-1.4458156566510285135","","-0.7229078283255142567"
"120219","15:27:06","5","compatibletest1","3","targetBright","17","23","1","110","2","Neenolup","-1.4445374613181447554","","-0.7222687306590723777"
"120219","15:27:06","5","compatibletest1","3","attributeB","18","23","0","232","3","Skillful","-1.4658234266176743965","","-0.7329117133088371983"
"120219","15:27:06","5","compatibletest1","3","targetAleft","19","18","1","108","2","Eskannif","-1.4624982944825453135","","-0.7312491472412726567"
"120219","15:27:06","5","compatibletest1","3","attributeB","20","23","1","157","2","Intelligent","-1.4803067154140796546","","-0.7401533577070398273"
"120219","15:27:06","5","compatibletest1","3","targetAleft","21","18","0","92","3","Lebbunif","-1.4685712267395270025","","-0.7342856133697635013"
"120219","15:27:06","5","compatibletest2","5","attributeA","1","18","1","288","4","Caring","-1.4685712267395270025","","-0.7342856133697635013"
"120219","15:27:06","5","compatibletest2","5","targetBright","2","23","1","106","4","Wenaalup","-1.4685712267395270025","-1.0387645916594554496","-1.2536679091994913371"
"120219","15:27:06","5","compatibletest2","5","attributeA","3","18","1","27","2","Nice","-1.4685712267395270025","-0.8822790053405349386","-1.1754251160400310816"
"120219","15:27:06","5","compatibletest2","5","targetBright","4","23","0","168","1","Maasolup","-1.4685712267395270025","-1.05823657031815066","-1.2634038985288387202"
"120219","15:27:06","5","compatibletest2","5","attributeB","5","23","0","54","1","Competent","-1.4685712267395270025","-1.0164209728414765888","-1.2424960997905016846"
"120219","15:27:06","5","compatibletest2","5","targetBright","6","23","0","48","4","Wenaalup","-1.4685712267395270025","-0.9827317676199083252","-1.2256514971797176639"
"120219","15:27:06","5","compatibletest2","5","attributeB","7","23","0","52","4","Efficient","-1.4685712267395270025","-0.9695609104615243723","-1.2190660686005256874"
"120219","15:27:06","5","compatibletest2","5","targetAleft","8","18","1","39","4","Zallunif","-1.4685712267395270025","-0.9427995955272577833","-1.2056854111333923374"
"120219","15:27:06","5","compatibletest2","5","attributeA","9","18","1","83","1","Warm","-1.4685712267395270025","-0.9789249435613412986","-1.2237480851504340951"
"120219","15:27:06","5","compatibletest2","5","targetBright","10","23","0","101","2","Neenolup","-1.4685712267395270025","-1.0266447145873776048","-1.2476079706634521926"
"120219","15:27:06","5","compatibletest2","5","attributeB","11","23","1","69","1","Competent","-1.4685712267395270025","-1.0429407924996594303","-1.2557560096195932164"
"120219","15:27:06","5","compatibletest2","5","targetAleft","12","18","1","112","3","Lebbunif","-1.4685712267395270025","-1.0889682728730261108","-1.2787697498062766677"
"120219","15:27:06","5","compatibletest2","5","attributeB","13","23","0","129","3","Skillful","-1.4685712267395270025","-1.135398412683421121","-1.3019848197114740618"
"120219","15:27:06","5","compatibletest2","5","targetAleft","14","18","0","97","1","Cellanif","-1.4685712267395270025","-1.1655748157801220088","-1.3170730212598245057"
"120219","15:27:06","5","compatibletest2","5","attributeA","15","18","0","91","4","Caring","-1.4685712267395270025","-1.1902236727533266336","-1.3293974497464269291"
"120219","15:27:06","5","compatibletest2","5","targetBright","16","23","1","76","3","Omeelup","-1.4685712267395270025","-1.2036815178953390593","-1.3361263723174330309"
"120219","15:27:06","5","compatibletest2","5","attributeB","17","23","0","199","2","Intelligent","-1.4685712267395270025","-1.2158077343471793696","-1.3421894805433531861"
"120219","15:27:06","5","compatibletest2","5","targetAleft","18","18","0","228","2","Eskannif","-1.4685712267395270025","-1.2152881684515419725","-1.3419296975955345985"
"120219","15:27:06","5","compatibletest2","5","attributeB","19","23","0","200","4","Efficient","-1.4685712267395270025","-1.2358595699876191443","-1.3522153983635729624"
"120219","15:27:06","5","compatibletest2","5","targetAleft","20","18","0","140","4","Zallunif","-1.4685712267395270025","-1.262212267621920736","-1.3653917471807237582"
"120219","15:27:06","5","compatibletest2","5","attributeB","21","23","0","228","1","Competent","-1.4685712267395270025","-1.2698293746221145373","-1.3692003006808208809"
"120219","15:27:06","5","compatibletest2","5","targetAleft","22","18","0","216","1","Cellanif","-1.4685712267395270025","-1.2848568491876177777","-1.3767140379635725012"
"120219","15:27:06","5","compatibletest2","5","attributeB","23","23","0","252","3","Skillful","-1.4685712267395270025","-1.2872260893849880592","-1.3778986580622576419"
"120219","15:27:06","5","compatibletest2","5","targetBright","24","23","1","47","3","Omeelup","-1.4685712267395270025","-1.2655759494999083703","-1.3670735881197177974"
"120219","15:27:06","5","compatibletest2","5","attributeA","25","18","0","115","3","Sociable","-1.4685712267395270025","-1.2785100299138725255","-1.373540628326699764"
"120219","15:27:06","5","compatibletest2","5","targetAleft","26","18","0","251","3","Lebbunif","-1.4685712267395270025","-1.2828262935841310277","-1.3756987601618289041"
"120219","15:27:06","5","compatibletest2","5","attributeA","27","18","0","286","4","Caring","-1.4685712267395270025","-1.2765392337769634334","-1.372555230258245107"
"120219","15:27:06","5","compatibletest2","5","targetBright","28","23","0","151","2","Neenolup","-1.4685712267395270025","-1.2930361932815859216","-1.3808037100105563511"
"120219","15:27:06","5","compatibletest2","5","attributeA","29","18","0","182","3","Sociable","-1.4685712267395270025","-1.3107675343076756747","-1.3896693805236013386"
"120219","15:27:06","5","compatibletest2","5","targetBright","30","23","0","316","1","Maasolup","-1.4685712267395270025","-1.2960722135165969604","-1.3823217201280619815"
"120219","15:27:06","5","compatibletest2","5","attributeA","31","18","0","180","1","Warm","-1.4685712267395270025","-1.3123406781231881091","-1.3904559524313575558"
"120219","15:27:06","5","compatibletest2","5","targetAleft","32","18","1","42","4","Zallunif","-1.4685712267395270025","-1.2899770066930966728","-1.3792741167163118376"
"120219","15:27:06","5","compatibletest2","5","attributeA","33","18","1","166","2","Nice","-1.4685712267395270025","-1.3046184809397751714","-1.386594853839651087"
"120219","15:27:06","5","compatibletest2","5","targetBright","34","23","0","197","4","Wenaalup","-1.4685712267395270025","-1.3194446215799082722","-1.3940079241597176374"
"120219","15:27:06","5","compatibletest2","5","attributeA","35","18","0","266","4","Caring","-1.4685712267395270025","-1.3249677822224188439","-1.3967695044809729232"
"120219","15:27:06","5","compatibletest2","5","targetAleft","36","18","1","44","2","Eskannif","-1.4685712267395270025","-1.3051734719871743717","-1.3868723493633505761"
"120219","15:27:06","5","compatibletest2","5","attributeB","37","23","1","72","2","Intelligent","-1.4685712267395270025","-1.2977857771240244311","-1.3831785019317757168"
"120219","15:27:06","5","compatibletest2","5","targetAleft","38","18","1","147","2","Eskannif","-1.4685712267395270025","-1.3084834329195489389","-1.3885273298295379707"
"120219","15:27:06","5","compatibletest2","5","attributeB","39","23","1","123","2","Intelligent","-1.4685712267395270025","-1.3151101670074771821","-1.3918406968735022033"
"120219","15:27:06","5","compatibletest2","5","targetBright","40","23","0","307","1","Maasolup","-1.4685712267395270025","-1.309154813270011708","-1.3888630200047693553"
"120219","15:27:06","5","targetincompatiblepracticeswitch","6","targetAright","2","23","0","673","4","Zallunif","-1.4685712267395270025","-1.309154813270011708","-1.3888630200047693553"
"120219","15:27:06","5","targetincompatiblepracticeswitch","6","targetAright","3","23","1","243","3","Lebbunif","-1.4685712267395270025","-1.309154813270011708","-1.3888630200047693553"
"120219","15:27:06","5","targetincompatiblepracticeswitch","6","targetBleft","4","18","1","263","3","Omeelup","-1.4685712267395270025","-1.309154813270011708","-1.3888630200047693553"
"120219","15:27:06","5","targetincompatiblepracticeswitch","6","targetAright","5","23","1","178","1","Cellanif","-1.4685712267395270025","-1.309154813270011708","-1.3888630200047693553"
"120219","15:27:06","5","targetincompatiblepracticeswitch","6","targetBleft","6","18","1","177","2","Neenolup","-1.4685712267395270025","-1.309154813270011708","-1.3888630200047693553"
"120219","15:27:06","5","targetincompatiblepracticeswitch","6","targetAright","7","23","1","128","1","Cellanif","-1.4685712267395270025","-1.309154813270011708","-1.3888630200047693553"
"120219","15:27:06","5","targetincompatiblepracticeswitch","6","targetBleft","8","18","1","96","4","Wenaalup","-1.4685712267395270025","-1.309154813270011708","-1.3888630200047693553"
"120219","15:27:06","5","targetincompatiblepracticeswitch","6","targetBleft","9","18","0","514","2","Neenolup","-1.4685712267395270025","-1.309154813270011708","-1.3888630200047693553"
"120219","15:27:06","5","targetincompatiblepracticeswitch","6","targetAright","10","23","1","139","3","Lebbunif","-1.4685712267395270025","-1.309154813270011708","-1.3888630200047693553"
"120219","15:27:06","5","targetincompatiblepracticeswitch","6","targetBleft","11","18","1","171","4","Wenaalup","-1.4685712267395270025","-1.309154813270011708","-1.3888630200047693553"
"120219","15:27:06","5","targetincompatiblepracticeswitch","6","targetBleft","12","18","0","562","1","Maasolup","-1.4685712267395270025","-1.309154813270011708","-1.3888630200047693553"
"120219","15:27:06","5","targetincompatiblepracticeswitch","6","targetAright","13","23","0","632","2","Eskannif","-1.4685712267395270025","-1.309154813270011708","-1.3888630200047693553"
"120219","15:27:06","5","targetincompatiblepracticeswitch","6","targetAright","14","23","1","212","4","Zallunif","-1.4685712267395270025","-1.309154813270011708","-1.3888630200047693553"
"120219","15:27:06","5","targetincompatiblepracticeswitch","6","targetAright","15","23","1","458","3","Lebbunif","-1.4685712267395270025","-1.309154813270011708","-1.3888630200047693553"
"120219","15:27:06","5","targetincompatiblepracticeswitch","6","targetBleft","16","18","0","789","3","Omeelup","-1.4685712267395270025","-1.309154813270011708","-1.3888630200047693553"
"120219","15:27:06","5","targetincompatiblepracticeswitch","6","targetAright","17","23","0","650","2","Eskannif","-1.4685712267395270025","-1.309154813270011708","-1.3888630200047693553"
"120219","15:27:06","5","targetincompatiblepracticeswitch","6","targetAright","18","23","1","421","4","Zallunif","-1.4685712267395270025","-1.309154813270011708","-1.3888630200047693553"
"120219","15:27:06","5","targetincompatiblepracticeswitch","6","targetAright","19","23","0","850","1","Cellanif","-1.4685712267395270025","-1.309154813270011708","-1.3888630200047693553"
"120219","15:27:06","5","targetincompatiblepracticeswitch","6","targetAright","20","23","1","60","2","Eskannif","-1.4685712267395270025","-1.309154813270011708","-1.3888630200047693553"
"120219","15:27:06","5","targetincompatiblepracticeswitch","6","targetBleft","21","18","0","648","4","Wenaalup","-1.4685712267395270025","-1.309154813270011708","-1.3888630200047693553"
"120219","15:27:06","5","targetincompatiblepracticeswitch","6","targetBleft","22","18","1","35","3","Omeelup","-1.4685712267395270025","-1.309154813270011708","-1.3888630200047693553"
"120219","15:27:06","5","targetincompatiblepracticeswitch","6","targetBleft","23","18","1","119","2","Neenolup","-1.4685712267395270025","-1.309154813270011708","-1.3888630200047693553"
"120219","15:27:06","5","targetincompatiblepracticeswitch","6","targetBleft","24","18","0","215","1","Maasolup","-1.4685712267395270025","-1.309154813270011708","-1.3888630200047693553"
"120219","15:27:06","5","targetincompatiblepracticeswitch","6","targetAright","25","23","1","124","1","Cellanif","-1.4685712267395270025","-1.309154813270011708","-1.3888630200047693553"
"120219","15:27:06","5","targetincompatiblepracticeswitch","6","targetBleft","26","18","1","5","3","Omeelup","-1.4685712267395270025","-1.309154813270011708","-1.3888630200047693553"
"120219","15:27:06","5","targetincompatiblepracticeswitch","6","targetBleft","27","18","0","170","1","Maasolup","-1.4685712267395270025","-1.309154813270011708","-1.3888630200047693553"
"120219","15:27:06","5","targetincompatiblepracticeswitch","6","targetBleft","28","18","0","184","2","Neenolup","-1.4685712267395270025","-1.309154813270011708","-1.3888630200047693553"
"120219","15:27:06","5","targetincompatiblepracticeswitch","6","targetAright","29","23","0","566","3","Lebbunif","-1.4685712267395270025","-1.309154813270011708","-1.3888630200047693553"
"120219","15:27:06","5","targetincompatiblepracticeswitch","6","targetBleft","30","18","0","284","4","Wenaalup","-1.4685712267395270025","-1.309154813270011708","-1.3888630200047693553"
"120219","15:27:06","5","targetincompatiblepracticeswitch","6","targetBleft","31","18","0","190","4","Wenaalup","-1.4685712267395270025","-1.309154813270011708","-1.3888630200047693553"
"120219","15:27:06","5","targetincompatiblepracticeswitch","6","targetAright","32","23","0","379","4","Zallunif","-1.4685712267395270025","-1.309154813270011708","-1.3888630200047693553"
"120219","15:27:06","5","targetincompatiblepracticeswitch","6","targetAright","33","23","0","473","3","Lebbunif","-1.4685712267395270025","-1.309154813270011708","-1.3888630200047693553"
"120219","15:27:06","5","targetincompatiblepracticeswitch","6","targetBleft","34","18","1","331","1","Maasolup","-1.4685712267395270025","-1.309154813270011708","-1.3888630200047693553"
"120219","15:27:06","5","targetincompatiblepracticeswitch","6","targetAright","35","23","1","308","4","Zallunif","-1.4685712267395270025","-1.309154813270011708","-1.3888630200047693553"
"120219","15:27:06","5","targetincompatiblepracticeswitch","6","targetBleft","36","18","1","141","3","Omeelup","-1.4685712267395270025","-1.309154813270011708","-1.3888630200047693553"
"120219","15:27:06","5","targetincompatiblepracticeswitch","6","targetBleft","37","18","0","725","2","Neenolup","-1.4685712267395270025","-1.309154813270011708","-1.3888630200047693553"
"120219","15:27:06","5","targetincompatiblepracticeswitch","6","targetAright","38","23","0","557","2","Eskannif","-1.4685712267395270025","-1.309154813270011708","-1.3888630200047693553"
"120219","15:27:06","5","targetincompatiblepracticeswitch","6","targetAright","39","23","1","36","1","Cellanif","-1.4685712267395270025","-1.309154813270011708","-1.3888630200047693553"
"120219","15:27:06","5","targetincompatiblepracticeswitch","6","targetBleft","40","18","0","344","4","Wenaalup","-1.4685712267395270025","-1.309154813270011708","-1.3888630200047693553"
"120219","15:27:06","5","targetincompatiblepracticeswitch","6","targetAright","41","23","1","7","1","Cellanif","-1.4685712267395270025","-1.309154813270011708","-1.3888630200047693553"
"120219","15:27:06","5","incompatibletest1","7","attributeB","2","23","0","625","3","Skillful","1.8733709829857940754","-1.309154813270011708","0.2821080848578911837"
"120219","15:27:06","5","incompatibletest1","7","targetAright","3","23","1","149","4","Zallunif","1.4810750578154305845","-1.309154813270011708","0.0859601222727094383"
"120219","15:27:06","5","incompatibletest1","7","attributeB","4","23","1","125","4","Efficient","1.0809471708045221838","-1.309154813270011708","-0.1141038212327447621"
"120219","15:27:06","5","incompatibletest1","7","targetBleft","5","18","0","221","1","Maasolup","0.978440075045883928","-1.309154813270011708","-0.16535736911206389"
"120219","15:27:06","5","incompatibletest1","7","attributeB","6","23","1","25","1","Competent","0.5797761279816882052","-1.309154813270011708","-0.3646893426441617514"
"120219","15:27:06","5","incompatibletest1","7","targetAright","7","23","0","110","3","Lebbunif","0.4238104562269051634","-1.309154813270011708","-0.4426721785215532723"
"120219","15:27:06","5","incompatibletest1","7","attributeA","8","18","0","86","3","Sociable","0.2768666182884371718","-1.309154813270011708","-0.5161440974907872681"
"120219","15:27:06","5","incompatibletest1","7","targetAright","9","23","1","48","2","Eskannif","0.1210872253716235303","-1.309154813270011708","-0.5940337939491940888"
"120219","15:27:06","5","incompatibletest1","7","attributeB","10","23","1","100","4","Efficient","0.0506068885772947979","-1.309154813270011708","-0.629273962346358462"
"120219","15:27:06","5","incompatibletest1","7","targetBleft","11","18","0","301","2","Neenolup","0.168632456917978818","-1.309154813270011708","-0.5702611781760164034"
"120219","15:27:06","5","incompatibletest1","7","attributeA","12","18","0","110","1","Warm","0.1153389600656603703","-1.309154813270011708","-0.5969079266021756203"
"120219","15:27:06","5","incompatibletest1","7","targetBleft","13","18","0","822","3","Omeelup","0.4168916455173286573","-1.309154813270011708","-0.4461315838763415531"
"120219","15:27:06","5","incompatibletest1","7","attributeA","14","18","1","130","2","Nice","0.3761013828972440964","-1.309154813270011708","-0.466526715186383778"
"120219","15:27:06","5","incompatibletest1","7","targetAright","15","23","0","131","4","Zallunif","0.3410941240171856403","-1.309154813270011708","-0.4840303446264130338"
"120219","15:27:06","5","incompatibletest1","7","attributeB","16","23","0","107","2","Intelligent","0.2994173182086740104","-1.309154813270011708","-0.5048687475306687933"
"120219","15:27:06","5","incompatibletest1","7","targetBleft","17","18","0","100","1","Maasolup","0.2593735805554559515","-1.309154813270011708","-0.5248906163572778505"
"120219","15:27:06","5","incompatibletest1","7","attributeA","18","18","0","76","1","Warm","0.2136502772013116336","-1.309154813270011708","-0.547752268034350065"
"120219","15:27:06","5","incompatibletest1","7","targetAright","19","23","1","86","3","Lebbunif","0.1764006398497960371","-1.309154813270011708","-0.566377086710107891"
"120219","15:27:06","5","incompatibletest1","7","attributeA","20","18","1","88","3","Sociable","0.1433335650801609573","-1.309154813270011708","-0.5829106240949253337"
"120219","15:27:06","5","incompatibletest1","7","targetBleft","21","18","1","130","2","Neenolup","0.1277297984088645866","-1.309154813270011708","-0.5907125074305735746"
"120219","15:27:06","5","incompatibletest2","9","attributeB","1","23","0","250","1","Competent","0.1277297984088645866","1.0460654593814882052","0.586897628895176382"
"120219","15:27:06","5","incompatibletest2","9","targetAright","2","23","1","53","2","Eskannif","0.1277297984088645866","0.048497044347536919","0.0881134213782007458"
"120219","15:27:06","5","incompatibletest2","9","attributeB","3","23","0","72","3","Skillful","0.1277297984088645866","-0.2621202270462225092","-0.0671952143186789613"
"120219","15:27:06","5","incompatibletest2","9","targetAright","4","23","0","50","1","Cellanif","0.1277297984088645866","-0.4741521592441566568","-0.173211180417646049"
"120219","15:27:06","5","incompatibletest2","9","attributeA","5","18","1","13","4","Caring","0.1277297984088645866","-0.6682788127572912851","-0.2702745071742133631"
"120219","15:27:06","5","incompatibletest2","9","targetBleft","6","18","0","99","4","Wenaalup","0.1277297984088645866","-0.6558115831264670348","-0.264040892358801238"
"120219","15:27:06","5","incompatibletest2","9","attributeB","7","23","0","76","4","Efficient","0.1277297984088645866","-0.6816032936300012723","-0.2769367476105683568"
"120219","15:27:06","5","incompatibletest2","9","targetAright","8","23","1","30","2","Eskannif","0.1277297984088645866","-0.7562946660630622819","-0.3142824338270988616"
"120219","15:27:06","5","incompatibletest2","9","attributeA","9","18","0","115","2","Nice","0.1277297984088645866","-0.724295626012648408","-0.2982829138018919246"
"120219","15:27:06","5","incompatibletest2","9","targetBleft","10","18","1","51","3","Omeelup","0.1277297984088645866","-0.7626323217595569748","-0.317451261675346208"
"120219","15:27:06","5","incompatibletest2","9","attributeA","11","18","0","110","1","Warm","0.1277297984088645866","-0.7422338324083163075","-0.3072520169997258743"
"120219","15:27:06","5","incompatibletest2","9","targetAright","12","23","0","71","3","Lebbunif","0.1277297984088645866","-0.7589148640804146417","-0.3155925328357750415"
"120219","15:27:06","5","incompatibletest2","9","attributeA","13","18","0","97","3","Sociable","0.1277297984088645866","-0.753806405884764219","-0.3130383037379498301"
"120219","15:27:06","5","incompatibletest2","9","targetBleft","14","18","0","114","2","Neenolup","0.1277297984088645866","-0.7368993846369780165","-0.3045847931140567288"
"120219","15:27:06","5","incompatibletest2","9","attributeB","15","23","0","115","3","Skillful","0.1277297984088645866","-0.7217624514542012593","-0.2970163265226683502"
"120219","15:27:06","5","incompatibletest2","9","targetAright","16","23","0","92","1","Cellanif","0.1277297984088645866","-0.724704040896240298","-0.2984871212436878696"
"120219","15:27:06","5","incompatibletest2","9","attributeA","17","18","1","77","4","Caring","0.1277297984088645866","-0.7371420880365748829","-0.304706144813855162"
"120219","15:27:06","5","incompatibletest2","9","targetBleft","18","18","0","136","4","Wenaalup","0.1277297984088645866","-0.7116112883746461559","-0.2919407449828907986"
"120219","15:27:06","5","incompatibletest2","9","attributeB","19","23","1","79","1","Competent","0.1277297984088645866","-0.7232323967471303572","-0.2977512991691328992"
"120219","15:27:06","5","incompatibletest2","9","targetBleft","20","18","0","138","3","Omeelup","0.1277297984088645866","-0.6998639117177938296","-0.2860670566544646354"
"120219","15:27:06","5","incompatibletest2","9","attributeA","21","18","0","106","2","Nice","0.1277297984088645866","-0.6973882823593696711","-0.2848292419752525562"
"120219","15:27:06","5","incompatibletest2","9","targetAright","22","23","1","74","4","Zallunif","0.1277297984088645866","-0.7115863278610913278","-0.2919282647261133845"
"120219","15:27:06","5","incompatibletest2","9","attributeA","23","18","0","149","3","Sociable","0.1277297984088645866","-0.6856201776341201981","-0.2789451896126278196"
"120219","15:27:06","5","incompatibletest2","9","targetBleft","24","18","1","100","1","Maasolup","0.1277297984088645866","-0.6876906785506222697","-0.2799804400708788554"
"120219","15:27:06","5","incompatibletest2","9","attributeA","25","18","0","133","4","Caring","0.1277297984088645866","-0.6733729620017527839","-0.2728215817964441126"
"120219","15:27:06","5","incompatibletest2","9","targetAright","26","23","0","92","1","Cellanif","0.1277297984088645866","-0.679791596841025525","-0.2760308992160804831"
"120219","15:27:06","5","incompatibletest2","9","attributeA","27","18","1","110","1","Warm","0.1277297984088645866","-0.6780716828434540933","-0.2751709422172947672"
"120219","15:27:06","5","incompatibletest2","9","targetBleft","28","18","1","143","4","Wenaalup","0.1277297984088645866","-0.6609655787882471323","-0.2666178901896912867"
"120219","15:27:06","5","incompatibletest2","9","attributeA","29","18","1","135","2","Nice","0.1277297984088645866","-0.6488633945748070175","-0.2605667980829712294"
"120219","15:27:06","5","incompatibletest2","9","targetAright","30","23","1","111","4","Zallunif","0.1277297984088645866","-0.648268889774975432","-0.2602695456830554366"
"120219","15:27:06","5","incompatibletest2","9","attributeB","31","23","1","121","2","Intelligent","0.1277297984088645866","-0.6436661982616593836","-0.2579681999263974124"
"120219","15:27:06","5","incompatibletest2","9","targetBleft","32","18","0","137","2","Neenolup","0.1277297984088645866","-0.6325146569401768337","-0.2523924292656561374"
"120219","15:27:06","5","incompatibletest2","9","attributeB","33","23","1","80","4","Efficient","0.1277297984088645866","-0.6442295935527279083","-0.2582498975719316747"
"120219","15:27:06","5","incompatibletest2","9","targetAright","34","23","1","107","3","Lebbunif","0.1277297984088645866","-0.6459457285540638471","-0.2591079650725996442"
"120219","15:27:06","5","incompatibletest2","9","attributeB","35","23","1","85","3","Skillful","0.1277297984088645866","-0.6554127864192887953","-0.2638414940052121183"
"120219","15:27:06","5","incompatibletest2","9","targetBleft","36","18","0","166","3","Omeelup","0.1277297984088645866","-0.6329089294083130035","-0.2525895654997242223"
"120219","15:27:06","5","incompatibletest2","9","attributeB","37","23","1","148","2","Intelligent","0.1277297984088645866","-0.619309010330493348","-0.2457896059608143946"
"120219","15:27:06","5","incompatibletest2","9","targetBleft","38","18","1","44","1","Maasolup","0.1277297984088645866","-0.6401400296310378879","-0.2562051156110866645"
"120219","15:27:06","5","incompatibletest2","9","attributeB","39","23","1","120","1","Competent","0.1277297984088645866","-0.6377408111660035628","-0.255005506378569502"
"120219","15:27:06","5","incompatibletest2","9","targetAright","40","23","1","145","2","Eskannif","0.1277297984088645866","-0.6263124782191257234","-0.2492913399051305823"
"120219","15:30:41","9","targetcompatiblepractice","1","targetAleft","2","18","1","1696","4","Zallunif","","","0"
"120219","15:30:41","9","targetcompatiblepractice","1","targetBright","3","23","1","994","1","Maasolup","","","0"
"120219","15:30:41","9","targetcompatiblepractice","1","targetAleft","4","18","1","1194","2","Eskannif","","","0"
"120219","15:30:41","9","targetcompatiblepractice","1","targetBright","5","23","1","822","2","Neenolup","","","0"
"120219","15:30:41","9","targetcompatiblepractice","1","targetAleft","6","18","1","898","1","Cellanif","","","0"
"120219","15:30:41","9","targetcompatiblepractice","1","targetBright","7","23","1","787","3","Omeelup","","","0"
"120219","15:30:41","9","targetcompatiblepractice","1","targetBright","8","23","1","676","4","Wenaalup","","","0"
"120219","15:30:41","9","targetcompatiblepractice","1","targetBright","9","23","1","596","2","Neenolup","","","0"
"120219","15:30:41","9","targetcompatiblepractice","1","targetBright","10","23","1","595","1","Maasolup","","","0"
"120219","15:30:41","9","targetcompatiblepractice","1","targetAleft","11","18","1","640","3","Lebbunif","","","0"
"120219","15:30:41","9","targetcompatiblepractice","1","targetBright","12","23","1","684","3","Omeelup","","","0"
"120219","15:30:41","9","targetcompatiblepractice","1","targetAleft","13","18","1","662","4","Zallunif","","","0"
"120219","15:30:41","9","targetcompatiblepractice","1","targetBright","14","23","1","522","4","Wenaalup","","","0"
"120219","15:30:41","9","targetcompatiblepractice","1","targetBright","15","23","1","650","2","Neenolup","","","0"
"120219","15:30:41","9","targetcompatiblepractice","1","targetAleft","16","18","1","558","2","Eskannif","","","0"
"120219","15:30:41","9","targetcompatiblepractice","1","targetAleft","17","18","1","661","1","Cellanif","","","0"
"120219","15:30:41","9","targetcompatiblepractice","1","targetAleft","18","18","1","552","3","Lebbunif","","","0"
"120219","15:30:41","9","targetcompatiblepractice","1","targetBright","19","23","1","599","1","Maasolup","","","0"
"120219","15:30:41","9","targetcompatiblepractice","1","targetAleft","20","18","1","549","3","Lebbunif","","","0"
"120219","15:30:41","9","targetcompatiblepractice","1","targetAleft","21","18","1","652","2","Eskannif","","","0"
"120219","15:30:41","9","attributepractice","2","attributeA","2","18","1","1081","3","Sociable","","","0"
"120219","15:30:41","9","attributepractice","2","attributeB","3","23","1","653","1","Competent","","","0"
"120219","15:30:41","9","attributepractice","2","attributeA","4","18","1","695","2","Nice","","","0"
"120219","15:30:41","9","attributepractice","2","attributeA","5","18","1","690","4","Caring","","","0"
"120219","15:30:41","9","attributepractice","2","attributeB","6","23","1","627","4","Efficient","","","0"
"120219","15:30:41","9","attributepractice","2","attributeB","7","23","1","792","3","Skillful","","","0"
"120219","15:30:41","9","attributepractice","2","attributeA","8","18","1","606","1","Warm","","","0"
"120219","15:30:41","9","attributepractice","2","attributeB","9","23","1","674","2","Intelligent","","","0"
"120219","15:30:41","9","attributepractice","2","attributeA","10","18","1","685","4","Caring","","","0"
"120219","15:30:41","9","attributepractice","2","attributeB","11","23","1","640","1","Competent","","","0"
"120219","15:30:41","9","attributepractice","2","attributeA","12","18","1","1091","3","Sociable","","","0"
"120219","15:30:41","9","attributepractice","2","attributeA","13","18","1","716","1","Warm","","","0"
"120219","15:30:41","9","attributepractice","2","attributeA","14","18","1","629","2","Nice","","","0"
"120219","15:30:41","9","attributepractice","2","attributeB","15","23","1","665","4","Efficient","","","0"
"120219","15:30:41","9","attributepractice","2","attributeA","16","18","1","692","4","Caring","","","0"
"120219","15:30:41","9","attributepractice","2","attributeA","17","18","1","574","1","Warm","","","0"
"120219","15:30:41","9","attributepractice","2","attributeB","18","23","1","653","2","Intelligent","","","0"
"120219","15:30:41","9","attributepractice","2","attributeB","19","23","1","609","3","Skillful","","","0"
"120219","15:30:41","9","attributepractice","2","attributeB","20","23","1","541","2","Intelligent","","","0"
"120219","15:30:41","9","attributepractice","2","attributeB","21","23","1","758","1","Competent","","","0"
"120219","15:30:41","9","compatibletest1","3","attributeA","2","18","1","2240","3","Sociable","","","0"
"120219","15:30:41","9","compatibletest1","3","targetBright","3","23","1","2348","3","Omeelup","-1.4126488861976533862","","-0.7063244430988266931"
"120219","15:30:41","9","compatibletest1","3","attributeB","4","23","1","1083","4","Efficient","-1.3967007015009313964","","-0.6983503507504656982"
"120219","15:30:41","9","compatibletest1","3","targetAleft","5","18","1","893","4","Zallunif","-1.351575301180838462","","-0.675787650590419231"
"120219","15:30:41","9","compatibletest1","3","attributeA","6","18","1","902","2","Nice","-1.341816396205107953","","-0.6709081981025539765"
"120219","15:30:41","9","compatibletest1","3","targetBright","7","23","1","807","4","Wenaalup","-1.3254852822876006524","","-0.6627426411438003262"
"120219","15:30:41","9","compatibletest1","3","attributeA","8","18","1","1221","1","Warm","-1.3795545917398137625","","-0.6897772958699068813"
"120219","15:30:41","9","compatibletest1","3","targetAleft","9","18","1","1794","1","Cellanif","-1.4390633871948772526","","-0.7195316935974386263"
"120219","15:30:41","9","compatibletest1","3","attributeA","10","18","1","832","3","Sociable","-1.4268431096779421452","","-0.7134215548389710726"
"120219","15:30:41","9","compatibletest1","3","targetAleft","11","18","1","611","3","Lebbunif","-1.3867895584232758921","","-0.693394779211637946"
"120219","15:30:41","9","compatibletest1","3","attributeB","12","23","1","1097","3","Skillful","-1.4137262278991695741","","-0.706863113949584787"
"120219","15:30:41","9","compatibletest1","3","targetAleft","13","18","1","858","4","Zallunif","-1.4174302307790083155","","-0.7087151153895041578"
"120219","15:30:41","9","compatibletest1","3","attributeA","14","18","1","878","4","Caring","-1.424543122856320343","","-0.7122715614281601715"
"120219","15:30:41","9","compatibletest1","3","targetBright","15","23","1","818","2","Neenolup","-1.426829019245911212","","-0.713414509622955606"
"120219","15:30:41","9","compatibletest1","3","attributeB","16","23","1","845","3","Skillful","-1.4327202299631611737","","-0.7163601149815805869"
"120219","15:30:41","9","compatibletest1","3","targetBright","17","23","1","1905","3","Omeelup","-1.4426162729269826901","","-0.721308136463491345"
"120219","15:30:41","9","compatibletest1","3","attributeB","18","23","1","1074","1","Competent","-1.4599874199794311558","","-0.7299937099897155779"
"120219","15:30:41","9","compatibletest1","3","targetBright","19","23","1","773","1","Maasolup","-1.4571372128672737123","","-0.7285686064336368561"
"120219","15:30:41","9","compatibletest1","3","attributeB","20","23","1","1707","2","Intelligent","-1.4738813306847795559","","-0.7369406653423897779"
"120219","15:30:41","9","compatibletest1","3","targetAleft","21","18","1","1013","2","Eskannif","-1.4852989265628553373","","-0.7426494632814276686"
"120219","15:30:41","9","compatibletest2","5","attributeB","1","23","1","1170","4","Efficient","-1.4852989265628553373","","-0.7426494632814276686"
"120219","15:30:41","9","compatibletest2","5","targetBright","2","23","1","1313","4","Wenaalup","-1.4852989265628553373","-1.4049245767706448618","-1.4451117516667499885"
"120219","15:30:41","9","compatibletest2","5","attributeB","3","23","1","776","2","Intelligent","-1.4852989265628553373","-1.5066364503372122741","-1.4959676884500336946"
"120219","15:30:41","9","compatibletest2","5","targetBright","4","23","1","839","3","Omeelup","-1.4852989265628553373","-1.5870436751557059907","-1.5361713008592805529"
"120219","15:30:41","9","compatibletest2","5","attributeA","5","18","1","715","2","Nice","-1.4852989265628553373","-1.6068764143139273592","-1.5460876704383914593"
"120219","15:30:41","9","compatibletest2","5","targetBright","6","23","1","771","4","Wenaalup","-1.4852989265628553373","-1.6416146646048102031","-1.5634567955838327702"
"120219","15:30:41","9","compatibletest2","5","attributeB","7","23","1","859","1","Competent","-1.4852989265628553373","-1.6829106912314395483","-1.5841048088971474428"
"120219","15:30:41","9","compatibletest2","5","targetAleft","8","18","1","813","1","Cellanif","-1.4852989265628553373","-1.7107605403913290765","-1.5980297334770923179"
"120219","15:30:41","9","compatibletest2","5","attributeB","9","23","1","826","3","Skillful","-1.4852989265628553373","-1.7352328986589349302","-1.6102659126108951337"
"120219","15:30:41","9","compatibletest2","5","targetAleft","10","18","1","663","2","Eskannif","-1.4852989265628553373","-1.7337711204853138991","-1.6095350235240846182"
"120219","15:30:41","9","compatibletest2","5","attributeA","11","18","1","706","1","Warm","-1.4852989265628553373","-1.7416242328439379694","-1.6134615797033966533"
"120219","15:30:41","9","compatibletest2","5","targetAleft","12","18","1","619","3","Lebbunif","-1.4852989265628553373","-1.7364111353641102919","-1.6108550309634828146"
"120219","15:30:41","9","compatibletest2","5","attributeA","13","18","1","599","4","Caring","-1.4852989265628553373","-1.7305718372382317138","-1.6079353819005435255"
"120219","15:30:41","9","compatibletest2","5","targetBright","14","23","1","765","1","Maasolup","-1.4852989265628553373","-1.7451452180208220089","-1.6152220722918386731"
"120219","15:30:41","9","compatibletest2","5","attributeA","15","18","1","652","2","Nice","-1.4852989265628553373","-1.7486205230737721372","-1.6169597248183138483"
"120219","15:30:41","9","compatibletest2","5","targetBright","16","23","1","743","2","Neenolup","-1.4852989265628553373","-1.7599912414244414105","-1.6226450839936483739"
"120219","15:30:41","9","compatibletest2","5","attributeB","17","23","0","1255","4","Efficient","-1.4852989265628553373","-1.7340918920380734569","-1.6096954093004645081"
"120219","15:30:41","9","compatibletest2","5","targetAleft","18","18","1","842","4","Zallunif","-1.4852989265628553373","-1.7471575820863254336","-1.6162282543245902744"
"120219","15:30:41","9","compatibletest2","5","attributeB","19","23","1","765","4","Efficient","-1.4852989265628553373","-1.7565806713964251529","-1.620939798979640134"
"120219","15:30:41","9","compatibletest2","5","targetAleft","20","18","1","860","1","Cellanif","-1.4852989265628553373","-1.7676585260539239286","-1.6264787263083895219"
"120219","15:30:41","9","compatibletest2","5","attributeA","21","18","1","1007","3","Sociable","-1.4852989265628553373","-1.7743443106396969977","-1.6298216186012761675"
"120219","15:30:41","9","compatibletest2","5","targetAleft","22","18","1","1148","1","Cellanif","-1.4852989265628553373","-1.7711144108606133862","-1.6282066687117344728"
"120219","15:30:41","9","compatibletest2","5","attributeB","23","23","1","748","3","Skillful","-1.4852989265628553373","-1.7764686947756931357","-1.6308838106692742365"
"120219","15:30:41","9","compatibletest2","5","targetAleft","24","18","1","643","2","Eskannif","-1.4852989265628553373","-1.7747496415856660601","-1.6300242840742606987"
"120219","15:30:41","9","compatibletest2","5","attributeB","25","23","1","943","2","Intelligent","-1.4852989265628553373","-1.7824162423975247194","-1.6338575844801899173"
"120219","15:30:41","9","compatibletest2","5","targetAleft","26","18","1","1063","4","Zallunif","-1.4852989265628553373","-1.7853160815086612789","-1.6353075040357583081"
"120219","15:30:41","9","compatibletest2","5","attributeA","27","18","1","827","1","Warm","-1.4852989265628553373","-1.7919534246389925425","-1.6386261756009239399"
"120219","15:30:41","9","compatibletest2","5","targetBright","28","23","1","886","2","Neenolup","-1.4852989265628553373","-1.7987878983942979794","-1.6420434124785767693"
"120219","15:30:41","9","compatibletest2","5","attributeA","29","18","1","817","3","Sociable","-1.4852989265628553373","-1.8044143295915933134","-1.6448566280772243253"
"120219","15:30:41","9","compatibletest2","5","targetBright","30","23","1","1022","3","Omeelup","-1.4852989265628553373","-1.8080577742125212293","-1.6466783503876882833"
"120219","15:30:41","9","compatibletest2","5","attributeA","31","18","1","674","4","Caring","-1.4852989265628553373","-1.8073619352092675783","-1.6463304308860613467"
"120219","15:30:41","9","compatibletest2","5","targetAleft","32","18","1","548","3","Lebbunif","-1.4852989265628553373","-1.7978311935811144284","-1.6415650600719848828"
"120219","15:30:41","9","compatibletest2","5","attributeA","33","18","1","565","2","Nice","-1.4852989265628553373","-1.7907347314126704774","-1.6380168289877627963"
"120219","15:30:41","9","compatibletest2","5","targetBright","34","23","1","659","1","Maasolup","-1.4852989265628553373","-1.7905803862441176388","-1.637939656403486488"
"120219","15:30:41","9","compatibletest2","5","attributeB","35","23","1","886","1","Competent","-1.4852989265628553373","-1.796028261965290973","-1.6406635942640730441"
"120219","15:30:41","9","compatibletest2","5","targetBright","36","23","1","1032","4","Wenaalup","-1.4852989265628553373","-1.7981972981275873291","-1.6417481123452213332"
"120219","15:30:41","9","compatibletest2","5","attributeB","37","23","1","764","4","Efficient","-1.4852989265628553373","-1.801770233987683989","-1.6435345802752696631"
"120219","15:30:41","9","compatibletest2","5","targetAleft","38","18","1","627","2","Eskannif","-1.4852989265628553373","-1.7997247148726005506","-1.6425118207177278329"
"120219","15:30:41","9","compatibletest2","5","attributeA","39","18","1","512","3","Sociable","-1.4852989265628553373","-1.7903429529090522099","-1.6378209397359537736"
"120219","15:30:41","9","compatibletest2","5","targetBright","40","23","1","634","2","Neenolup","-1.4852989265628553373","-1.7894563743905456121","-1.6373776504767003637"
"120219","15:30:41","9","targetincompatiblepracticeswitch","6","targetBleft","2","18","1","974","3","Omeelup","-1.4852989265628553373","-1.7894563743905456121","-1.6373776504767003637"
"120219","15:30:41","9","targetincompatiblepracticeswitch","6","targetBleft","3","18","1","533","4","Wenaalup","-1.4852989265628553373","-1.7894563743905456121","-1.6373776504767003637"
"120219","15:30:41","9","targetincompatiblepracticeswitch","6","targetBleft","4","18","1","508","1","Maasolup","-1.4852989265628553373","-1.7894563743905456121","-1.6373776504767003637"
"120219","15:30:41","9","targetincompatiblepracticeswitch","6","targetAright","5","23","1","574","3","Lebbunif","-1.4852989265628553373","-1.7894563743905456121","-1.6373776504767003637"
"120219","15:30:41","9","targetincompatiblepracticeswitch","6","targetAright","6","23","1","516","4","Zallunif","-1.4852989265628553373","-1.7894563743905456121","-1.6373776504767003637"
"120219","15:30:41","9","targetincompatiblepracticeswitch","6","targetAright","7","23","1","525","1","Cellanif","-1.4852989265628553373","-1.7894563743905456121","-1.6373776504767003637"
"120219","15:30:41","9","targetincompatiblepracticeswitch","6","targetBleft","8","18","1","534","2","Neenolup","-1.4852989265628553373","-1.7894563743905456121","-1.6373776504767003637"
"120219","15:30:41","9","targetincompatiblepracticeswitch","6","targetAright","9","23","1","590","4","Zallunif","-1.4852989265628553373","-1.7894563743905456121","-1.6373776504767003637"
"120219","15:30:41","9","targetincompatiblepracticeswitch","6","targetAright","10","23","1","484","1","Cellanif","-1.4852989265628553373","-1.7894563743905456121","-1.6373776504767003637"
"120219","15:30:41","9","targetincompatiblepracticeswitch","6","targetBleft","11","18","1","478","3","Omeelup","-1.4852989265628553373","-1.7894563743905456121","-1.6373776504767003637"
"120219","15:30:41","9","targetincompatiblepracticeswitch","6","targetBleft","12","18","1","585","1","Maasolup","-1.4852989265628553373","-1.7894563743905456121","-1.6373776504767003637"
"120219","15:30:41","9","targetincompatiblepracticeswitch","6","targetBleft","13","18","1","487","4","Wenaalup","-1.4852989265628553373","-1.7894563743905456121","-1.6373776504767003637"
"120219","15:30:41","9","targetincompatiblepracticeswitch","6","targetAright","14","23","1","536","2","Eskannif","-1.4852989265628553373","-1.7894563743905456121","-1.6373776504767003637"
"120219","15:30:41","9","targetincompatiblepracticeswitch","6","targetBleft","15","18","1","481","1","Maasolup","-1.4852989265628553373","-1.7894563743905456121","-1.6373776504767003637"
"120219","15:30:41","9","targetincompatiblepracticeswitch","6","targetBleft","16","18","1","499","4","Wenaalup","-1.4852989265628553373","-1.7894563743905456121","-1.6373776504767003637"
"120219","15:30:41","9","targetincompatiblepracticeswitch","6","targetAright","17","23","1","484","3","Lebbunif","-1.4852989265628553373","-1.7894563743905456121","-1.6373776504767003637"
"120219","15:30:41","9","targetincompatiblepracticeswitch","6","targetAright","18","23","1","494","4","Zallunif","-1.4852989265628553373","-1.7894563743905456121","-1.6373776504767003637"
"120219","15:30:41","9","targetincompatiblepracticeswitch","6","targetAright","19","23","1","505","2","Eskannif","-1.4852989265628553373","-1.7894563743905456121","-1.6373776504767003637"
"120219","15:30:41","9","targetincompatiblepracticeswitch","6","targetBleft","20","18","1","498","2","Neenolup","-1.4852989265628553373","-1.7894563743905456121","-1.6373776504767003637"
"120219","15:30:41","9","targetincompatiblepracticeswitch","6","targetAright","21","23","1","491","1","Cellanif","-1.4852989265628553373","-1.7894563743905456121","-1.6373776504767003637"
"120219","15:30:41","9","targetincompatiblepracticeswitch","6","targetBleft","22","18","1","517","3","Omeelup","-1.4852989265628553373","-1.7894563743905456121","-1.6373776504767003637"
"120219","15:30:41","9","targetincompatiblepracticeswitch","6","targetAright","23","23","1","493","3","Lebbunif","-1.4852989265628553373","-1.7894563743905456121","-1.6373776504767003637"
"120219","15:30:41","9","targetincompatiblepracticeswitch","6","targetBleft","24","18","1","512","3","Omeelup","-1.4852989265628553373","-1.7894563743905456121","-1.6373776504767003637"
"120219","15:30:41","9","targetincompatiblepracticeswitch","6","targetBleft","25","18","1","457","4","Wenaalup","-1.4852989265628553373","-1.7894563743905456121","-1.6373776504767003637"
"120219","15:30:41","9","targetincompatiblepracticeswitch","6","targetBleft","26","18","1","525","1","Maasolup","-1.4852989265628553373","-1.7894563743905456121","-1.6373776504767003637"
"120219","15:30:41","9","targetincompatiblepracticeswitch","6","targetBleft","27","18","1","429","2","Neenolup","-1.4852989265628553373","-1.7894563743905456121","-1.6373776504767003637"
"120219","15:30:41","9","targetincompatiblepracticeswitch","6","targetBleft","28","18","1","401","2","Neenolup","-1.4852989265628553373","-1.7894563743905456121","-1.6373776504767003637"
"120219","15:30:41","9","targetincompatiblepracticeswitch","6","targetAright","29","23","1","463","2","Eskannif","-1.4852989265628553373","-1.7894563743905456121","-1.6373776504767003637"
"120219","15:30:41","9","targetincompatiblepracticeswitch","6","targetAright","30","23","1","339","4","Zallunif","-1.4852989265628553373","-1.7894563743905456121","-1.6373776504767003637"
"120219","15:30:41","9","targetincompatiblepracticeswitch","6","targetBleft","31","18","1","442","3","Omeelup","-1.4852989265628553373","-1.7894563743905456121","-1.6373776504767003637"
"120219","15:30:41","9","targetincompatiblepracticeswitch","6","targetBleft","32","18","1","398","4","Wenaalup","-1.4852989265628553373","-1.7894563743905456121","-1.6373776504767003637"
"120219","15:30:41","9","targetincompatiblepracticeswitch","6","targetAright","33","23","1","444","1","Cellanif","-1.4852989265628553373","-1.7894563743905456121","-1.6373776504767003637"
"120219","15:30:41","9","targetincompatiblepracticeswitch","6","targetAright","34","23","1","352","3","Lebbunif","-1.4852989265628553373","-1.7894563743905456121","-1.6373776504767003637"
"120219","15:30:41","9","targetincompatiblepracticeswitch","6","targetAright","35","23","1","439","1","Cellanif","-1.4852989265628553373","-1.7894563743905456121","-1.6373776504767003637"
"120219","15:30:41","9","targetincompatiblepracticeswitch","6","targetAright","36","23","1","379","3","Lebbunif","-1.4852989265628553373","-1.7894563743905456121","-1.6373776504767003637"
"120219","15:30:41","9","targetincompatiblepracticeswitch","6","targetBleft","37","18","1","449","1","Maasolup","-1.4852989265628553373","-1.7894563743905456121","-1.6373776504767003637"
"120219","15:30:41","9","targetincompatiblepracticeswitch","6","targetBleft","38","18","1","349","1","Maasolup","-1.4852989265628553373","-1.7894563743905456121","-1.6373776504767003637"
"120219","15:30:41","9","targetincompatiblepracticeswitch","6","targetAright","39","23","1","548","2","Eskannif","-1.4852989265628553373","-1.7894563743905456121","-1.6373776504767003637"
"120219","15:30:41","9","targetincompatiblepracticeswitch","6","targetAright","40","23","1","532","4","Zallunif","-1.4852989265628553373","-1.7894563743905456121","-1.6373776504767003637"
"120219","15:30:41","9","targetincompatiblepracticeswitch","6","targetAright","41","23","1","500","1","Cellanif","-1.4852989265628553373","-1.7894563743905456121","-1.6373776504767003637"
"120219","15:30:41","9","incompatibletest1","7","attributeB","2","23","0","2191","3","Skillful","1.3960831321366831137","-1.7894563743905456121","-0.1966866211269312492"
"120219","15:30:41","9","incompatibletest1","7","targetAright","3","23","0","1492","4","Zallunif","1.0851476785597988783","-1.7894563743905456121","-0.3521543479153733669"
"120219","15:30:41","9","incompatibletest1","7","attributeA","4","18","1","965","4","Caring","0.6656650283125187251","-1.7894563743905456121","-0.5618956730390134435"
"120219","15:30:41","9","incompatibletest1","7","targetBleft","5","18","1","1451","4","Wenaalup","0.6377822204086918134","-1.7894563743905456121","-0.5758370769909268994"
"120219","15:30:41","9","incompatibletest1","7","attributeA","6","18","1","1455","1","Warm","0.6259661580656740165","-1.7894563743905456121","-0.5817451081624358533"
"120219","15:30:41","9","incompatibletest1","7","targetBleft","7","18","1","1858","2","Neenolup","0.730531938194251329","-1.7894563743905456121","-0.5294622180981471971"
"120219","15:30:41","9","incompatibletest1","7","attributeA","8","18","1","2317","2","Nice","0.8819976657841359646","-1.7894563743905456121","-0.4537293543032048238"
"120219","15:30:41","9","incompatibletest1","7","targetBleft","9","18","1","1110","3","Omeelup","0.7746262674674340154","-1.7894563743905456121","-0.5074150534615557984"
"120219","15:30:41","9","incompatibletest1","7","attributeA","10","18","1","847","3","Sociable","0.6269771622330868599","-1.7894563743905456121","-0.5812396060787293761"
"120219","15:30:41","9","incompatibletest1","7","targetBleft","11","18","1","802","4","Wenaalup","0.4962604866410599835","-1.7894563743905456121","-0.6465979438747427865"
"120219","15:30:41","9","incompatibletest1","7","attributeB","12","23","1","928","1","Competent","0.4119740750644594329","-1.7894563743905456121","-0.6887411496630431174"
"120219","15:30:41","9","incompatibletest1","7","targetAright","13","23","1","672","3","Lebbunif","0.2955752667363230612","-1.7894563743905456121","-0.7469405538271112199"
"120219","15:30:41","9","incompatibletest1","7","attributeB","14","23","1","795","2","Intelligent","0.2170028174428730305","-1.7894563743905456121","-0.786226778473836263"
"120219","15:30:41","9","incompatibletest1","7","targetBleft","15","18","1","1409","2","Neenolup","0.2352276698106497144","-1.7894563743905456121","-0.7771143522899479628"
"120219","15:30:41","9","incompatibletest1","7","attributeB","16","23","1","783","4","Efficient","0.1683812014493105136","-1.7894563743905456121","-0.810537586470617577"
"120219","15:30:41","9","incompatibletest1","7","targetAright","17","23","1","716","2","Eskannif","0.1010400282062103999","-1.7894563743905456121","-0.8442081730921675575"
"120219","15:30:41","9","incompatibletest1","7","attributeB","18","23","1","837","3","Skillful","0.0557009243670621573","-1.7894563743905456121","-0.8668777250117417621"
"120219","15:30:41","9","incompatibletest1","7","targetAright","19","23","1","561","2","Eskannif","-0.0151277831772577247","-1.7894563743905456121","-0.9022920787839017187"
"120219","15:30:41","9","incompatibletest1","7","attributeA","20","18","1","1088","2","Nice","-0.0245640038774720161","-1.7894563743905456121","-0.9070101891340087708"
"120219","15:30:41","9","incompatibletest1","7","targetAright","21","23","1","963","3","Lebbunif","-0.0456700923305523518","-1.7894563743905456121","-0.9175632333605490132"
"120219","15:30:41","9","incompatibletest2","9","attributeB","1","23","1","1527","1","Competent","-0.0456700923305523518","1.7481452224472406876","0.8512375650583441367"
"120219","15:30:41","9","incompatibletest2","9","targetAright","2","23","1","2217","1","Cellanif","-0.0456700923305523518","1.8482626118585741004","0.9012962597640108431"
"120219","15:30:41","9","incompatibletest2","9","attributeA","3","18","1","877","1","Warm","-0.0456700923305523518","1.6629572192505424066","0.8086435634599949962"
"120219","15:30:41","9","incompatibletest2","9","targetBleft","4","18","1","576","1","Maasolup","-0.0456700923305523518","1.3412837736805385269","0.6478068406749930563"
"120219","15:30:41","9","incompatibletest2","9","attributeB","5","23","1","959","2","Intelligent","-0.0456700923305523518","1.2268169514466380488","0.5905734295580428173"
"120219","15:30:41","9","incompatibletest2","9","targetAright","6","23","1","1246","4","Zallunif","-0.0456700923305523518","1.2398255702618830032","0.5970777389656652945"
"120219","15:30:41","9","incompatibletest2","9","attributeB","7","23","1","794","4","Efficient","-0.0456700923305523518","1.1056276683212298284","0.5299787879953387071"
"120219","15:30:41","9","incompatibletest2","9","targetAright","8","23","1","600","4","Zallunif","-0.0456700923305523518","0.9167445683706841875","0.4355372380200659421"
"120219","15:30:41","9","incompatibletest2","9","attributeA","9","18","1","685","4","Caring","-0.0456700923305523518","0.787755710112912344","0.3710428088911800204"
"120219","15:30:41","9","incompatibletest2","9","targetBleft","10","18","1","671","3","Omeelup","-0.0456700923305523518","0.6737807427320844367","0.3140553252007660667"
"120219","15:30:41","9","incompatibletest2","9","attributeB","11","23","1","746","3","Skillful","-0.0456700923305523518","0.6007656596510266844","0.2775477836602371906"
"120219","15:30:41","9","incompatibletest2","9","targetAright","12","23","1","1026","3","Lebbunif","-0.0456700923305523518","0.6152277680346450728","0.2847788378520463848"
"120219","15:30:41","9","incompatibletest2","9","attributeA","13","18","1","1143","2","Nice","-0.0456700923305523518","0.6545590299326624617","0.3044444688010550792"
"120219","15:30:41","9","incompatibletest2","9","targetBleft","14","18","1","679","4","Wenaalup","-0.0456700923305523518","0.5806582476883664912","0.267494077678907094"
"120219","15:30:41","9","incompatibletest2","9","attributeA","15","18","1","1617","3","Sociable","-0.0456700923305523518","0.6884941099666330722","0.3214120088180403845"
"120219","15:30:41","9","incompatibletest2","9","targetAright","16","23","1","965","1","Cellanif","-0.0456700923305523518","0.6831067624719190379","0.3187183350706833673"
"120219","15:30:41","9","incompatibletest2","9","attributeA","17","18","1","1133","1","Warm","-0.0456700923305523518","0.7070123773395722289","0.3306711425045099628"
"120219","15:30:41","9","incompatibletest2","9","targetAright","18","23","1","2924","2","Eskannif","-0.0456700923305523518","0.7881042060187400944","0.3712170568440938956"
"120219","15:30:41","9","incompatibletest2","9","attributeB","19","23","1","1069","2","Intelligent","-0.0456700923305523518","0.7867345267537240172","0.370532217211585857"
"120219","15:30:41","9","incompatibletest2","9","targetBleft","20","18","1","744","3","Omeelup","-0.0456700923305523518","0.745448842715572435","0.3498893751925100659"
"120219","15:30:41","9","incompatibletest2","9","attributeB","21","23","1","1312","1","Competent","-0.0456700923305523518","0.770034387532109732","0.3621821476007787144"
"120219","15:30:41","9","incompatibletest2","9","targetBleft","22","18","1","1896","2","Neenolup","-0.0456700923305523518","0.8254894686328702047","0.3899096881511589507"
"120219","15:30:41","9","incompatibletest2","9","attributeB","23","23","1","955","2","Intelligent","-0.0456700923305523518","0.8119909846146904364","0.3831604461420690666"
"120219","15:30:41","9","incompatibletest2","9","targetAright","24","23","1","587","4","Zallunif","-0.0456700923305523518","0.7579028922681771974","0.3561163999688124471"
"120219","15:30:41","9","incompatibletest2","9","attributeB","25","23","1","720","4","Efficient","-0.0456700923305523518","0.7232887108571558477","0.3388093092633017722"
"120219","15:30:41","9","incompatibletest2","9","targetBleft","26","18","1","833","1","Maasolup","-0.0456700923305523518","0.7029261714061770805","0.3286280395378123886"
"120219","15:30:41","9","incompatibletest2","9","attributeB","27","23","1","1038","1","Competent","-0.0456700923305523518","0.702808267974426526","0.3285690878219371114"
"120219","15:30:41","9","incompatibletest2","9","targetBleft","28","18","1","1857","4","Wenaalup","-0.0456700923305523518","0.7471901841223114182","0.3507600458958795575"
"120219","15:30:41","9","incompatibletest2","9","attributeA","29","18","1","1013","4","Caring","-0.0456700923305523518","0.7437463460496639422","0.3490381268595558195"
"120219","15:30:41","9","incompatibletest2","9","targetAright","30","23","1","778","1","Cellanif","-0.0456700923305523518","0.7207464328235992923","0.3375381702465234945"
"120219","15:30:41","9","incompatibletest2","9","attributeA","31","18","1","767","4","Caring","-0.0456700923305523518","0.6981212406430127304","0.3262255741562302136"
"120219","15:30:41","9","incompatibletest2","9","targetAright","32","23","1","1142","2","Eskannif","-0.0456700923305523518","0.7055986878834098475","0.3299642977764287721"
"120219","15:30:41","9","incompatibletest2","9","attributeB","33","23","1","757","3","Skillful","-0.0456700923305523518","0.6838610242658570426","0.3190954659676523697"
"120219","15:30:41","9","incompatibletest2","9","targetBleft","34","18","1","893","3","Omeelup","-0.0456700923305523518","0.67427419133820643","0.3143020495038270634"
"120219","15:30:41","9","incompatibletest2","9","attributeA","35","18","1","807","1","Warm","-0.0456700923305523518","0.6585907172990227432","0.30646031248423522"
"120219","15:30:41","9","incompatibletest2","9","targetAright","36","23","1","652","3","Lebbunif","-0.0456700923305523518","0.6309917011381229734","0.2926608044037853351"
"120219","15:30:41","9","incompatibletest2","9","attributeA","37","18","1","832","2","Nice","-0.0456700923305523518","0.619054182820310217","0.2866920452448789569"
"120219","15:30:41","9","incompatibletest2","9","targetBleft","38","18","1","1227","2","Neenolup","-0.0456700923305523518","0.6324440538394708877","0.2933869807544592923"
"120219","15:30:41","9","incompatibletest2","9","attributeA","39","18","1","808","3","Sociable","-0.0456700923305523518","0.619424975299412317","0.2868774414844300069"
"120219","15:30:41","9","incompatibletest2","9","targetBleft","40","18","1","2166","1","Maasolup","-0.0456700923305523518","0.6548523507281092115","0.3045911291987784542"
"120219","15:34:40","14","targetcompatiblepractice","1","targetAleft","2","18","1","3458","2","Eskannif","","","0"
"120219","15:34:40","14","targetcompatiblepractice","1","targetBright","3","23","1","1058","2","Neenolup","","","0"
"120219","15:34:40","14","targetcompatiblepractice","1","targetAleft","4","18","1","1324","4","Zallunif","","","0"
"120219","15:34:40","14","targetcompatiblepractice","1","targetBright","5","23","1","1132","1","Maasolup","","","0"
"120219","15:34:40","14","targetcompatiblepractice","1","targetAleft","6","18","1","1523","1","Cellanif","","","0"
"120219","15:34:40","14","targetcompatiblepractice","1","targetBright","7","23","1","802","4","Wenaalup","","","0"
"120219","15:34:40","14","targetcompatiblepractice","1","targetAleft","8","18","1","1334","3","Lebbunif","","","0"
"120219","15:34:40","14","targetcompatiblepractice","1","targetBright","9","23","1","765","3","Omeelup","","","0"
"120219","15:34:40","14","targetcompatiblepractice","1","targetBright","10","23","1","1555","2","Neenolup","","","0"
"120219","15:34:40","14","targetcompatiblepractice","1","targetBright","11","23","1","761","4","Wenaalup","","","0"
"120219","15:34:40","14","targetcompatiblepractice","1","targetBright","12","23","1","887","1","Maasolup","","","0"
"120219","15:34:40","14","targetcompatiblepractice","1","targetAleft","13","18","1","705","1","Cellanif","","","0"
"120219","15:34:40","14","targetcompatiblepractice","1","targetAleft","14","18","1","649","3","Lebbunif","","","0"
"120219","15:34:40","14","targetcompatiblepractice","1","targetAleft","15","18","1","779","4","Zallunif","","","0"
"120219","15:34:40","14","targetcompatiblepractice","1","targetAleft","16","18","1","850","2","Eskannif","","","0"
"120219","15:34:40","14","targetcompatiblepractice","1","targetBright","17","23","1","892","3","Omeelup","","","0"
"120219","15:34:40","14","targetcompatiblepractice","1","targetAleft","18","18","1","741","3","Lebbunif","","","0"
"120219","15:34:40","14","targetcompatiblepractice","1","targetBright","19","23","1","540","4","Wenaalup","","","0"
"120219","15:34:40","14","targetcompatiblepractice","1","targetBright","20","23","1","1059","2","Neenolup","","","0"
"120219","15:34:40","14","targetcompatiblepractice","1","targetAleft","21","18","1","493","1","Cellanif","","","0"
"120219","15:34:40","14","attributepractice","2","attributeB","2","23","1","3276","3","Skillful","","","0"
"120219","15:34:40","14","attributepractice","2","attributeB","3","23","1","1620","2","Intelligent","","","0"
"120219","15:34:40","14","attributepractice","2","attributeB","4","23","1","879","1","Competent","","","0"
"120219","15:34:40","14","attributepractice","2","attributeB","5","23","1","1345","4","Efficient","","","0"
"120219","15:34:40","14","attributepractice","2","attributeB","6","23","1","720","4","Efficient","","","0"
"120219","15:34:40","14","attributepractice","2","attributeB","7","23","1","1000","3","Skillful","","","0"
"120219","15:34:40","14","attributepractice","2","attributeA","8","18","1","868","1","Warm","","","0"
"120219","15:34:40","14","attributepractice","2","attributeB","9","23","1","974","1","Competent","","","0"
"120219","15:34:40","14","attributepractice","2","attributeA","10","18","1","1235","3","Sociable","","","0"
"120219","15:34:40","14","attributepractice","2","attributeA","11","18","1","1222","2","Nice","","","0"
"120219","15:34:40","14","attributepractice","2","attributeB","12","23","1","969","2","Intelligent","","","0"
"120219","15:34:40","14","attributepractice","2","attributeA","13","18","1","887","4","Caring","","","0"
"120219","15:34:40","14","attributepractice","2","attributeA","14","18","1","960","1","Warm","","","0"
"120219","15:34:40","14","attributepractice","2","attributeA","15","18","1","2062","2","Nice","","","0"
"120219","15:34:40","14","attributepractice","2","attributeA","16","18","1","832","3","Sociable","","","0"
"120219","15:34:40","14","attributepractice","2","attributeA","17","18","1","731","4","Caring","","","0"
"120219","15:34:40","14","attributepractice","2","attributeB","18","23","1","1075","1","Competent","","","0"
"120219","15:34:40","14","attributepractice","2","attributeA","19","18","1","764","1","Warm","","","0"
"120219","15:34:40","14","attributepractice","2","attributeB","20","23","1","1587","2","Intelligent","","","0"
"120219","15:34:40","14","attributepractice","2","attributeA","21","18","1","927","4","Caring","","","0"
"120219","15:34:40","14","compatibletest1","3","attributeA","2","18","0","7941","3","Sociable","","","0"
"120219","15:34:40","14","compatibletest1","3","targetBright","3","23","1","2062","3","Omeelup","-0.9163757990240086748","","-0.4581878995120043374"
"120219","15:34:40","14","compatibletest1","3","attributeA","4","18","0","4463","2","Nice","-1.1541070679068541338","","-0.5770535339534270669"
"120219","15:34:40","14","compatibletest1","3","targetAleft","5","18","1","2230","2","Eskannif","-1.1440159055476140093","","-0.5720079527738070047"
"120219","15:34:40","14","compatibletest1","3","attributeB","6","23","1","1848","3","Skillful","-1.1177918024063662195","","-0.5588959012031831097"
"120219","15:34:40","14","compatibletest1","3","targetBright","7","23","1","1683","1","Maasolup","-1.0959595076266845926","","-0.5479797538133422963"
"120219","15:34:40","14","compatibletest1","3","attributeA","8","18","1","1755","3","Sociable","-1.09047020550178142","","-0.54523510275089071"
"120219","15:34:40","14","compatibletest1","3","targetAleft","9","18","1","1425","4","Zallunif","-1.0714814038736382162","","-0.5357407019368191081"
"120219","15:34:40","14","compatibletest1","3","attributeB","10","23","0","2724","4","Efficient","-1.1167240328242469261","","-0.558362016412123463"
"120219","15:34:40","14","compatibletest1","3","targetAleft","11","18","1","2906","4","Zallunif","-1.1621020581754160084","","-0.5810510290877080042"
"120219","15:34:40","14","compatibletest1","3","attributeA","12","18","1","1936","2","Nice","-1.1715398191503079151","","-0.5857699095751539575"
"120219","15:34:40","14","compatibletest1","3","targetAleft","13","18","1","1254","1","Cellanif","-1.1514801490796380268","","-0.5757400745398190134"
"120219","15:34:40","14","compatibletest1","3","attributeA","14","18","1","1385","4","Caring","-1.1422312712961204539","","-0.571115635648060227"
"120219","15:34:40","14","compatibletest1","3","targetBright","15","23","1","989","4","Wenaalup","-1.1182181164615476732","","-0.5591090582307738366"
"120219","15:34:40","14","compatibletest1","3","attributeB","16","23","1","1410","3","Skillful","-1.1159624720189711411","","-0.5579812360094855705"
"120219","15:34:40","14","compatibletest1","3","targetBright","17","23","1","1151","2","Neenolup","-1.1054216242334942155","","-0.5527108121167471078"
"120219","15:34:40","14","compatibletest1","3","attributeB","18","23","1","1428","4","Efficient","-1.1068610478471645475","","-0.5534305239235822738"
"120219","15:34:40","14","compatibletest1","3","targetAleft","19","18","1","1248","2","Eskannif","-1.1031720131596964851","","-0.5515860065798482426"
"120219","15:34:40","14","compatibletest1","3","attributeB","20","23","1","1082","1","Competent","-1.0950421431986956389","","-0.5475210715993478194"
"120219","15:34:40","14","compatibletest1","3","targetBright","21","23","1","1147","3","Omeelup","-1.0905553783115820021","","-0.5452776891557910011"
"120219","15:34:40","14","compatibletest2","5","attributeB","1","23","1","1483","2","Intelligent","-1.0905553783115820021","","-0.5452776891557910011"
"120219","15:34:40","14","compatibletest2","5","targetAleft","2","18","1","1980","3","Lebbunif","-1.0905553783115820021","-1.3593251989670163127","-1.2249402886392992684"
"120219","15:34:40","14","compatibletest2","5","attributeB","3","23","1","1945","4","Efficient","-1.0905553783115820021","-1.5837568507627381997","-1.3371561145371599899"
"120219","15:34:40","14","compatibletest2","5","targetBright","4","23","1","1015","1","Maasolup","-1.0905553783115820021","-1.5553344329820790737","-1.3229449056468305379"
"120219","15:34:40","14","compatibletest2","5","attributeA","5","18","1","1347","1","Warm","-1.0905553783115820021","-1.617650481925438477","-1.3541029301185103506"
"120219","15:34:40","14","compatibletest2","5","targetBright","6","23","1","1217","2","Neenolup","-1.0905553783115820021","-1.647530056846506108","-1.369042717579044055"
"120219","15:34:40","14","compatibletest2","5","attributeB","7","23","1","1357","2","Intelligent","-1.0905553783115820021","-1.6866096064267288579","-1.38858249236915543"
"120219","15:34:40","14","compatibletest2","5","targetAleft","8","18","1","979","4","Zallunif","-1.0905553783115820021","-1.6732544568397342832","-1.3819049175756581427"
"120219","15:34:40","14","compatibletest2","5","attributeA","9","18","1","1560","2","Nice","-1.0905553783115820021","-1.7061945204239887808","-1.3983749493677852804"
"120219","15:34:40","14","compatibletest2","5","targetBright","10","23","1","871","1","Maasolup","-1.0905553783115820021","-1.6799523173425512379","-1.38525384782706662"
"120219","15:34:40","14","compatibletest2","5","attributeA","11","18","1","1408","4","Caring","-1.0905553783115820021","-1.7058524895308795344","-1.3982039339212306572"
"120219","15:34:40","14","compatibletest2","5","targetBright","12","23","1","1005","4","Wenaalup","-1.0905553783115820021","-1.7038647179901416084","-1.3972100481508618053"
"120219","15:34:40","14","compatibletest2","5","attributeB","13","23","1","1528","3","Skillful","-1.0905553783115820021","-1.7236208601969531529","-1.4070881192542676885"
"120219","15:34:40","14","compatibletest2","5","targetAleft","14","18","1","815","2","Eskannif","-1.0905553783115820021","-1.7006311765256119095","-1.3955932774185968448"
"120219","15:34:40","14","compatibletest2","5","attributeA","15","18","1","859","1","Warm","-1.0905553783115820021","-1.688044742601958248","-1.3893000604567702361"
"120219","15:34:40","14","compatibletest2","5","targetAleft","16","18","1","997","1","Cellanif","-1.0905553783115820021","-1.6907736702196214384","-1.3906645242656017203"
"120219","15:34:40","14","compatibletest2","5","attributeA","17","18","1","1427","3","Sociable","-1.0905553783115820021","-1.7066705931218681958","-1.3986129857167250989"
"120219","15:34:40","14","compatibletest2","5","targetBright","18","23","1","758","3","Omeelup","-1.0905553783115820021","-1.6879337311508031405","-1.3892445547311926823"
"120219","15:34:40","14","compatibletest2","5","attributeB","19","23","1","892","1","Competent","-1.0905553783115820021","-1.6845324680660895833","-1.3875439231888357927"
"120219","15:34:40","14","compatibletest2","5","targetBright","20","23","1","1102","1","Maasolup","-1.0905553783115820021","-1.6939545481720350573","-1.3922549632418084187"
"120219","15:34:40","14","compatibletest2","5","attributeB","21","23","1","1661","2","Intelligent","-1.0905553783115820021","-1.698427542084495423","-1.3944914601980387125"
"120219","15:34:40","14","compatibletest2","5","targetBright","22","23","1","903","2","Neenolup","-1.0905553783115820021","-1.6959568055243379181","-1.3932560919179599601"
"120219","15:34:40","14","compatibletest2","5","attributeA","23","18","1","1424","1","Warm","-1.0905553783115820021","-1.7070338241118581113","-1.3987946012117200567"
"120219","15:34:40","14","compatibletest2","5","targetAleft","24","18","1","1251","3","Lebbunif","-1.0905553783115820021","-1.7173308137761440495","-1.4039430960438630258"
"120219","15:34:40","14","compatibletest2","5","attributeB","25","23","1","1373","4","Efficient","-1.0905553783115820021","-1.7272836263628854603","-1.4089195023372336202"
"120219","15:34:40","14","compatibletest2","5","targetAleft","26","18","0","2394","3","Lebbunif","-1.0905553783115820021","-1.6727931716185222566","-1.3816742749650521294"
"120219","15:34:40","14","compatibletest2","5","attributeB","27","23","1","2494","3","Skillful","-1.0905553783115820021","-1.6282365180665649973","-1.3593959481890736107"
"120219","15:34:40","14","compatibletest2","5","targetBright","28","23","1","941","3","Omeelup","-1.0905553783115820021","-1.6263154080418571468","-1.3584353931767196855"
"120219","15:34:40","14","compatibletest2","5","attributeA","29","18","1","1364","4","Caring","-1.0905553783115820021","-1.6367275897889104197","-1.3636414840502462109"
"120219","15:34:40","14","compatibletest2","5","targetBright","30","23","1","906","4","Wenaalup","-1.0905553783115820021","-1.6334942437278885397","-1.3620248110197352709"
"120219","15:34:40","14","compatibletest2","5","attributeA","31","18","1","1195","2","Nice","-1.0905553783115820021","-1.6406977815832390899","-1.365626579947410546"
"120219","15:34:40","14","compatibletest2","5","targetBright","32","23","1","719","1","Maasolup","-1.0905553783115820021","-1.628253374911118323","-1.3594043766113501626"
"120219","15:34:40","14","compatibletest2","5","attributeA","33","18","1","1399","3","Sociable","-1.0905553783115820021","-1.6377314319632128026","-1.3641434051373972913"
"120219","15:34:40","14","compatibletest2","5","targetAleft","34","18","1","1019","4","Zallunif","-1.0905553783115820021","-1.6399701076209092232","-1.3652627429662456127"
"120219","15:34:40","14","compatibletest2","5","attributeB","35","23","1","783","1","Competent","-1.0905553783115820021","-1.6326279437165804875","-1.3615916610140812448"
"120219","15:34:40","14","compatibletest2","5","targetAleft","36","18","1","988","1","Cellanif","-1.0905553783115820021","-1.6343515704911828479","-1.362453474401382536"
"120219","15:34:40","14","compatibletest2","5","attributeB","37","23","1","1089","1","Competent","-1.0905553783115820021","-1.6389832671616604287","-1.3647693227366213264"
"120219","15:34:40","14","compatibletest2","5","targetAleft","38","18","1","1170","2","Eskannif","-1.0905553783115820021","-1.6451370325939000949","-1.3678462054527411595"
"120219","15:34:40","14","compatibletest2","5","attributeA","39","18","1","975","1","Warm","-1.0905553783115820021","-1.6464899121662230908","-1.3685226452389025464"
"120219","15:34:40","14","compatibletest2","5","targetAleft","40","18","1","1205","1","Cellanif","-1.0905553783115820021","-1.6528670125627560328","-1.3717111954371690175"
"120219","15:34:40","14","targetincompatiblepracticeswitch","6","targetBleft","2","18","1","828","3","Omeelup","-1.0905553783115820021","-1.6528670125627560328","-1.3717111954371690175"
"120219","15:34:40","14","targetincompatiblepracticeswitch","6","targetBleft","3","18","1","616","4","Wenaalup","-1.0905553783115820021","-1.6528670125627560328","-1.3717111954371690175"
"120219","15:34:40","14","targetincompatiblepracticeswitch","6","targetAright","4","23","1","700","3","Lebbunif","-1.0905553783115820021","-1.6528670125627560328","-1.3717111954371690175"
"120219","15:34:40","14","targetincompatiblepracticeswitch","6","targetBleft","5","18","1","613","2","Neenolup","-1.0905553783115820021","-1.6528670125627560328","-1.3717111954371690175"
"120219","15:34:40","14","targetincompatiblepracticeswitch","6","targetAright","6","23","1","793","4","Zallunif","-1.0905553783115820021","-1.6528670125627560328","-1.3717111954371690175"
"120219","15:34:40","14","targetincompatiblepracticeswitch","6","targetBleft","7","18","1","607","2","Neenolup","-1.0905553783115820021","-1.6528670125627560328","-1.3717111954371690175"
"120219","15:34:40","14","targetincompatiblepracticeswitch","6","targetAright","8","23","1","699","2","Eskannif","-1.0905553783115820021","-1.6528670125627560328","-1.3717111954371690175"
"120219","15:34:40","14","targetincompatiblepracticeswitch","6","targetBleft","9","18","1","595","1","Maasolup","-1.0905553783115820021","-1.6528670125627560328","-1.3717111954371690175"
"120219","15:34:40","14","targetincompatiblepracticeswitch","6","targetBleft","10","18","1","761","3","Omeelup","-1.0905553783115820021","-1.6528670125627560328","-1.3717111954371690175"
"120219","15:34:40","14","targetincompatiblepracticeswitch","6","targetBleft","11","18","1","623","4","Wenaalup","-1.0905553783115820021","-1.6528670125627560328","-1.3717111954371690175"
"120219","15:34:40","14","targetincompatiblepracticeswitch","6","targetAright","12","23","1","595","1","Cellanif","-1.0905553783115820021","-1.6528670125627560328","-1.3717111954371690175"
"120219","15:34:40","14","targetincompatiblepracticeswitch","6","targetAright","13","23","1","648","3","Lebbunif","-1.0905553783115820021","-1.6528670125627560328","-1.3717111954371690175"
"120219","15:34:40","14","targetincompatiblepracticeswitch","6","targetBleft","14","18","1","548","1","Maasolup","-1.0905553783115820021","-1.6528670125627560328","-1.3717111954371690175"
"120219","15:34:40","14","targetincompatiblepracticeswitch","6","targetBleft","15","18","1","603","2","Neenolup","-1.0905553783115820021","-1.6528670125627560328","-1.3717111954371690175"
"120219","15:34:40","14","targetincompatiblepracticeswitch","6","targetAright","16","23","1","552","4","Zallunif","-1.0905553783115820021","-1.6528670125627560328","-1.3717111954371690175"
"120219","15:34:40","14","targetincompatiblepracticeswitch","6","targetAright","17","23","1","622","2","Eskannif","-1.0905553783115820021","-1.6528670125627560328","-1.3717111954371690175"
"120219","15:34:40","14","targetincompatiblepracticeswitch","6","targetBleft","18","18","1","586","4","Wenaalup","-1.0905553783115820021","-1.6528670125627560328","-1.3717111954371690175"
"120219","15:34:40","14","targetincompatiblepracticeswitch","6","targetBleft","19","18","1","1056","3","Omeelup","-1.0905553783115820021","-1.6528670125627560328","-1.3717111954371690175"
"120219","15:34:40","14","targetincompatiblepracticeswitch","6","targetBleft","20","18","1","602","3","Omeelup","-1.0905553783115820021","-1.6528670125627560328","-1.3717111954371690175"
"120219","15:34:40","14","targetincompatiblepracticeswitch","6","targetAright","21","23","1","598","1","Cellanif","-1.0905553783115820021","-1.6528670125627560328","-1.3717111954371690175"
"120219","15:34:40","14","targetincompatiblepracticeswitch","6","targetAright","22","23","1","643","4","Zallunif","-1.0905553783115820021","-1.6528670125627560328","-1.3717111954371690175"
"120219","15:34:40","14","targetincompatiblepracticeswitch","6","targetBleft","23","18","1","558","2","Neenolup","-1.0905553783115820021","-1.6528670125627560328","-1.3717111954371690175"
"120219","15:34:40","14","targetincompatiblepracticeswitch","6","targetAright","24","23","1","828","3","Lebbunif","-1.0905553783115820021","-1.6528670125627560328","-1.3717111954371690175"
"120219","15:34:40","14","targetincompatiblepracticeswitch","6","targetAright","25","23","1","553","2","Eskannif","-1.0905553783115820021","-1.6528670125627560328","-1.3717111954371690175"
"120219","15:34:40","14","targetincompatiblepracticeswitch","6","targetAright","26","23","1","551","1","Cellanif","-1.0905553783115820021","-1.6528670125627560328","-1.3717111954371690175"
"120219","15:34:40","14","targetincompatiblepracticeswitch","6","targetBleft","27","18","1","558","4","Wenaalup","-1.0905553783115820021","-1.6528670125627560328","-1.3717111954371690175"
"120219","15:34:40","14","targetincompatiblepracticeswitch","6","targetBleft","28","18","1","684","1","Maasolup","-1.0905553783115820021","-1.6528670125627560328","-1.3717111954371690175"
"120219","15:34:40","14","targetincompatiblepracticeswitch","6","targetBleft","29","18","1","510","4","Wenaalup","-1.0905553783115820021","-1.6528670125627560328","-1.3717111954371690175"
"120219","15:34:40","14","targetincompatiblepracticeswitch","6","targetAright","30","23","1","598","3","Lebbunif","-1.0905553783115820021","-1.6528670125627560328","-1.3717111954371690175"
"120219","15:34:40","14","targetincompatiblepracticeswitch","6","targetAright","31","23","1","707","4","Zallunif","-1.0905553783115820021","-1.6528670125627560328","-1.3717111954371690175"
"120219","15:34:40","14","targetincompatiblepracticeswitch","6","targetBleft","32","18","1","579","2","Neenolup","-1.0905553783115820021","-1.6528670125627560328","-1.3717111954371690175"
"120219","15:34:40","14","targetincompatiblepracticeswitch","6","targetAright","33","23","1","898","2","Eskannif","-1.0905553783115820021","-1.6528670125627560328","-1.3717111954371690175"
"120219","15:34:40","14","targetincompatiblepracticeswitch","6","targetAright","34","23","1","490","1","Cellanif","-1.0905553783115820021","-1.6528670125627560328","-1.3717111954371690175"
"120219","15:34:40","14","targetincompatiblepracticeswitch","6","targetBleft","35","18","1","532","1","Maasolup","-1.0905553783115820021","-1.6528670125627560328","-1.3717111954371690175"
"120219","15:34:40","14","targetincompatiblepracticeswitch","6","targetAright","36","23","1","1052","4","Zallunif","-1.0905553783115820021","-1.6528670125627560328","-1.3717111954371690175"
"120219","15:34:40","14","targetincompatiblepracticeswitch","6","targetBleft","37","18","1","645","3","Omeelup","-1.0905553783115820021","-1.6528670125627560328","-1.3717111954371690175"
"120219","15:34:40","14","targetincompatiblepracticeswitch","6","targetAright","38","23","1","520","2","Eskannif","-1.0905553783115820021","-1.6528670125627560328","-1.3717111954371690175"
"120219","15:34:40","14","targetincompatiblepracticeswitch","6","targetBleft","39","18","1","544","2","Neenolup","-1.0905553783115820021","-1.6528670125627560328","-1.3717111954371690175"
"120219","15:34:40","14","targetincompatiblepracticeswitch","6","targetAright","40","23","1","672","3","Lebbunif","-1.0905553783115820021","-1.6528670125627560328","-1.3717111954371690175"
"120219","15:34:40","14","targetincompatiblepracticeswitch","6","targetAright","41","23","1","490","2","Eskannif","-1.0905553783115820021","-1.6528670125627560328","-1.3717111954371690175"
"120219","15:34:40","14","incompatibletest1","7","attributeB","2","23","1","1537","3","Skillful","-0.3573308650339410142","-1.6528670125627560328","-1.0050989387983484402"
"120219","15:34:40","14","incompatibletest1","7","targetAright","3","23","1","960","4","Zallunif","-0.5394087527386065561","-1.6528670125627560328","-1.09613788265068135"
"120219","15:34:40","14","incompatibletest1","7","attributeB","4","23","1","1038","4","Efficient","-0.5922191354961175991","-1.6528670125627560328","-1.1225430740294368714"
"120219","15:34:40","14","incompatibletest1","7","targetAright","5","23","1","865","1","Cellanif","-0.6496220035088015043","-1.6528670125627560328","-1.1512445080357787131"
"120219","15:34:40","14","incompatibletest1","7","attributeB","6","23","1","1436","2","Intelligent","-0.6218332054447003321","-1.6528670125627560328","-1.1373501090037281269"
"120219","15:34:40","14","incompatibletest1","7","targetAright","7","23","1","750","3","Lebbunif","-0.6741437780747840947","-1.6528670125627560328","-1.1635053953187699527"
"120219","15:34:40","14","incompatibletest1","7","attributeA","8","18","1","996","2","Nice","-0.6945557023805182251","-1.6528670125627560328","-1.1737113574716371289"
"120219","15:34:40","14","incompatibletest1","7","targetBleft","9","18","1","857","1","Maasolup","-0.7228105161619581276","-1.6528670125627560328","-1.1878387643623571357"
"120219","15:34:40","14","incompatibletest1","7","attributeA","10","18","1","804","4","Caring","-0.7506381946671127903","-1.6528670125627560328","-1.2017526036149344115"
"120219","15:34:40","14","incompatibletest1","7","targetBleft","11","18","1","736","4","Wenaalup","-0.7789028192572684528","-1.6528670125627560328","-1.2158849159100122428"
"120219","15:34:40","14","incompatibletest1","7","attributeB","12","23","1","1471","4","Efficient","-0.7627920652711733807","-1.6528670125627560328","-1.2078295389169646512"
"120219","15:34:40","14","incompatibletest1","7","targetBleft","13","18","1","769","3","Omeelup","-0.7869560763053207175","-1.6528670125627560328","-1.2199115444340384862"
"120219","15:34:40","14","incompatibletest1","7","attributeA","14","18","1","1158","3","Sociable","-0.7908166201906352555","-1.6528670125627560328","-1.2218418163766955331"
"120219","15:34:40","14","incompatibletest1","7","targetAright","15","23","1","668","4","Zallunif","-0.8162519269335412053","-1.6528670125627560328","-1.2345594697481485635"
"120219","15:34:40","14","incompatibletest1","7","attributeB","16","23","1","798","1","Competent","-0.8346160768065656876","-1.6528670125627560328","-1.2437415446846609157"
"120219","15:34:40","14","incompatibletest1","7","targetBleft","17","18","1","724","1","Maasolup","-0.8544134746743823339","-1.6528670125627560328","-1.2536402436185691833"
"120219","15:34:40","14","incompatibletest1","7","attributeA","18","18","1","924","1","Warm","-0.866044354959668139","-1.6528670125627560328","-1.2594556837612120859"
"120219","15:34:40","14","incompatibletest1","7","targetBleft","19","18","1","875","2","Neenolup","-0.8789250503217814758","-1.6528670125627560328","-1.2658960314422686988"
"120219","15:34:40","14","incompatibletest1","7","attributeA","20","18","1","1029","4","Caring","-0.886274646407831046","-1.6528670125627560328","-1.2695708294852936504"
"120219","15:34:40","14","incompatibletest1","7","targetAright","21","23","1","728","1","Cellanif","-0.902657027096562703","-1.6528670125627560328","-1.2777620198296593124"
"120219","15:34:40","14","incompatibletest2","9","attributeA","1","18","1","1216","3","Sociable","-0.902657027096562703","-0.0710814243496423609","-0.4868692257231025389"
"120219","15:34:40","14","incompatibletest2","9","targetAright","2","23","1","1812","3","Lebbunif","-0.902657027096562703","0.6263900252866148044","-0.1381335009049739493"
"120219","15:34:40","14","incompatibletest2","9","attributeB","3","23","1","1183","3","Skillful","-0.902657027096562703","0.3847310951969120651","-0.2589629659498253189"
"120219","15:34:40","14","incompatibletest2","9","targetAright","4","23","1","836","2","Eskannif","-0.902657027096562703","0.041280538270051792","-0.4306882444132554832"
"120219","15:34:40","14","incompatibletest2","9","attributeB","5","23","1","1087","2","Intelligent","-0.902657027096562703","-0.0450342504719702316","-0.473845638784266443"
"120219","15:34:40","14","incompatibletest2","9","targetBleft","6","18","1","672","3","Omeelup","-0.902657027096562703","-0.2702266631258715135","-0.5864418451112171082"
"120219","15:34:40","14","incompatibletest2","9","attributeB","7","23","1","1202","3","Skillful","-0.902657027096562703","-0.2496192511718818008","-0.5761381391342222935"
"120219","15:34:40","14","incompatibletest2","9","targetAright","8","23","1","694","4","Zallunif","-0.902657027096562703","-0.3839815092719087164","-0.6433192681842356819"
"120219","15:34:40","14","incompatibletest2","9","attributeB","9","23","1","999","2","Intelligent","-0.902657027096562703","-0.4110233876183232438","-0.6568402073574429734"
"120219","15:34:40","14","incompatibletest2","9","targetBleft","10","18","1","692","4","Wenaalup","-0.902657027096562703","-0.501171275192280774","-0.701914151144421794"
"120219","15:34:40","14","incompatibletest2","9","attributeA","11","18","1","645","2","Nice","-0.902657027096562703","-0.5820676022628077373","-0.7423623146796851646"
"120219","15:34:40","14","incompatibletest2","9","targetBleft","12","18","1","640","1","Maasolup","-0.902657027096562703","-0.6489757496482967403","-0.7758163883724297216"
"120219","15:34:40","14","incompatibletest2","9","attributeB","13","23","0","1763","1","Competent","-0.902657027096562703","-0.5030651475048374399","-0.7028610873007000714"
"120219","15:34:40","14","incompatibletest2","9","targetBleft","14","18","1","1144","3","Omeelup","-0.902657027096562703","-0.4895338441795506479","-0.6960954356380566477"
"120219","15:34:40","14","incompatibletest2","9","attributeA","15","18","1","863","1","Warm","-0.902657027096562703","-0.5200327400315377657","-0.7113448835640502343"
"120219","15:34:40","14","incompatibletest2","9","targetBleft","16","18","1","673","4","Wenaalup","-0.902657027096562703","-0.5708984409336261834","-0.7367777340150944987"
"120219","15:34:40","14","incompatibletest2","9","attributeB","17","23","1","907","4","Efficient","-0.902657027096562703","-0.5884392879018484068","-0.7455481574992055549"
"120219","15:34:40","14","incompatibletest2","9","targetAright","18","23","1","772","2","Eskannif","-0.902657027096562703","-0.6197399827195895217","-0.7611985049080760568"
"120219","15:34:40","14","incompatibletest2","9","attributeB","19","23","1","817","1","Competent","-0.902657027096562703","-0.6434836462997808315","-0.7730703366981717117"
"120219","15:34:40","14","incompatibletest2","9","targetAright","20","23","1","781","3","Lebbunif","-0.902657027096562703","-0.6687534688541714178","-0.7857052479753670049"
"120219","15:34:40","14","incompatibletest2","9","attributeA","21","18","1","794","4","Caring","-0.902657027096562703","-0.6908037820954276986","-0.7967304045959952008"
"120219","15:34:40","14","incompatibletest2","9","targetBleft","22","18","1","639","2","Neenolup","-0.902657027096562703","-0.7236105178679117511","-0.8131337724822371715"
"120219","15:34:40","14","incompatibletest2","9","attributeB","23","23","1","1067","4","Efficient","-0.902657027096562703","-0.7171709115275917146","-0.8099139693120771533"
"120219","15:34:40","14","incompatibletest2","9","targetAright","24","23","1","740","1","Cellanif","-0.902657027096562703","-0.7394498328541266874","-0.8210534299753446952"
"120219","15:34:40","14","incompatibletest2","9","attributeA","25","18","1","772","3","Sociable","-0.902657027096562703","-0.7579349607061447447","-0.8302959939013536683"
"120219","15:34:40","14","incompatibletest2","9","targetAright","26","23","1","633","4","Zallunif","-0.902657027096562703","-0.7841412800181316589","-0.8433991535573471809"
"120219","15:34:40","14","incompatibletest2","9","attributeB","27","23","1","1341","3","Skillful","-0.902657027096562703","-0.7510309845831797393","-0.8268440058398711656"
"120219","15:34:40","14","incompatibletest2","9","targetBleft","28","18","1","611","1","Maasolup","-0.902657027096562703","-0.776933948506729144","-0.8397954878016459235"
"120219","15:34:40","14","incompatibletest2","9","attributeA","29","18","1","600","2","Nice","-0.902657027096562703","-0.8015712011183454555","-0.8521141141074540792"
"120219","15:34:40","14","incompatibletest2","9","targetBleft","30","18","1","788","4","Wenaalup","-0.902657027096562703","-0.8147270815203135896","-0.8586920543084382018"
"120219","15:34:40","14","incompatibletest2","9","attributeA","31","18","1","666","4","Caring","-0.902657027096562703","-0.833703708110958841","-0.8681803676037607165"
"120219","15:34:40","14","incompatibletest2","9","targetAright","32","23","1","588","2","Eskannif","-0.902657027096562703","-0.8549835702923661573","-0.8788202986944644302"
"120219","15:34:40","14","incompatibletest2","9","attributeA","33","18","1","833","3","Sociable","-0.902657027096562703","-0.8634823612227190415","-0.8830696941596408722"
"120219","15:34:40","14","incompatibletest2","9","targetAright","34","23","1","620","1","Cellanif","-0.902657027096562703","-0.8816251673896441376","-0.8921410972431034203"
"120219","15:34:40","14","incompatibletest2","9","attributeA","35","18","1","695","2","Nice","-0.902657027096562703","-0.8958443517034608838","-0.8992506894000118489"
"120219","15:34:40","14","incompatibletest2","9","targetBleft","36","18","1","657","2","Neenolup","-0.902657027096562703","-0.9109387879032093682","-0.9067979074998859801"
"120219","15:34:40","14","incompatibletest2","9","attributeB","37","23","1","827","2","Intelligent","-0.902657027096562703","-0.918080331121166493","-0.9103686791088645425"
"120219","15:34:40","14","incompatibletest2","9","targetBleft","38","18","1","720","3","Omeelup","-0.902657027096562703","-0.9297384985331500484","-0.9161977628148563202"
"120219","15:34:40","14","incompatibletest2","9","attributeA","39","18","1","575","1","Warm","-0.902657027096562703","-0.9457790432012278536","-0.9242180351488953338"
"120219","15:34:40","14","incompatibletest2","9","targetAright","40","23","1","717","3","Lebbunif","-0.902657027096562703","-0.9565462579481501804","-0.9296016425223564417"
"120219","10:40:12","30","targetcompatiblepractice","1","targetAleft","2","18","1","1817","2","Eskannif","","","0"
"120219","10:40:12","30","targetcompatiblepractice","1","targetAleft","3","18","1","991","1","Cellanif","","","0"
"120219","10:40:12","30","targetcompatiblepractice","1","targetAleft","4","18","1","782","4","Zallunif","","","0"
"120219","10:40:12","30","targetcompatiblepractice","1","targetBright","5","23","1","683","4","Wenaalup","","","0"
"120219","10:40:12","30","targetcompatiblepractice","1","targetAleft","6","18","1","765","3","Lebbunif","","","0"
"120219","10:40:12","30","targetcompatiblepractice","1","targetBright","7","23","1","681","3","Omeelup","","","0"
"120219","10:40:12","30","targetcompatiblepractice","1","targetBright","8","23","1","870","1","Maasolup","","","0"
"120219","10:40:12","30","targetcompatiblepractice","1","targetBright","9","23","1","688","2","Neenolup","","","0"
"120219","10:40:12","30","targetcompatiblepractice","1","targetBright","10","23","1","439","4","Wenaalup","","","0"
"120219","10:40:12","30","targetcompatiblepractice","1","targetBright","11","23","1","370","2","Neenolup","","","0"
"120219","10:40:12","30","targetcompatiblepractice","1","targetAleft","12","18","1","450","4","Zallunif","","","0"
"120219","10:40:12","30","targetcompatiblepractice","1","targetAleft","13","18","1","382","1","Cellanif","","","0"
"120219","10:40:12","30","targetcompatiblepractice","1","targetAleft","14","18","1","494","3","Lebbunif","","","0"
"120219","10:40:12","30","targetcompatiblepractice","1","targetAleft","15","18","1","526","2","Eskannif","","","0"
"120219","10:40:12","30","targetcompatiblepractice","1","targetBright","16","23","1","611","3","Omeelup","","","0"
"120219","10:40:12","30","targetcompatiblepractice","1","targetAleft","17","18","1","841","2","Eskannif","","","0"
"120219","10:40:12","30","targetcompatiblepractice","1","targetBright","18","23","1","577","1","Maasolup","","","0"
"120219","10:40:12","30","targetcompatiblepractice","1","targetBright","19","23","1","1088","3","Omeelup","","","0"
"120219","10:40:12","30","targetcompatiblepractice","1","targetBright","20","23","1","641","1","Maasolup","","","0"
"120219","10:40:12","30","targetcompatiblepractice","1","targetAleft","21","18","1","552","1","Cellanif","","","0"
"120219","10:40:12","30","attributepractice","2","attributeA","2","18","1","1093","1","Warm","","","0"
"120219","10:40:12","30","attributepractice","2","attributeB","3","23","1","545","1","Competent","","","0"
"120219","10:40:12","30","attributepractice","2","attributeB","4","23","1","1878","4","Efficient","","","0"
"120219","10:40:12","30","attributepractice","2","attributeB","5","23","1","1058","3","Skillful","","","0"
"120219","10:40:12","30","attributepractice","2","attributeB","6","23","1","1295","2","Intelligent","","","0"
"120219","10:40:12","30","attributepractice","2","attributeA","7","18","1","796","2","Nice","","","0"
"120219","10:40:12","30","attributepractice","2","attributeA","8","18","1","725","4","Caring","","","0"
"120219","10:40:12","30","attributepractice","2","attributeB","9","23","1","956","3","Skillful","","","0"
"120219","10:40:12","30","attributepractice","2","attributeA","10","18","1","1093","3","Sociable","","","0"
"120219","10:40:12","30","attributepractice","2","attributeA","11","18","1","740","2","Nice","","","0"
"120219","10:40:12","30","attributepractice","2","attributeB","12","23","1","847","4","Efficient","","","0"
"120219","10:40:12","30","attributepractice","2","attributeA","13","18","1","1092","3","Sociable","","","0"
"120219","10:40:12","30","attributepractice","2","attributeA","14","18","1","726","4","Caring","","","0"
"120219","10:40:12","30","attributepractice","2","attributeA","15","18","1","847","1","Warm","","","0"
"120219","10:40:12","30","attributepractice","2","attributeB","16","23","1","567","1","Competent","","","0"
"120219","10:40:12","30","attributepractice","2","attributeA","17","18","1","609","1","Warm","","","0"
"120219","10:40:12","30","attributepractice","2","attributeB","18","23","1","987","2","Intelligent","","","0"
