"date","time","subject","blockcode","blocknum","trialcode","trialnum","response","correct","latency","stimulusnumber1","stimulusitem1","expressions.da","expressions.db","expressions.d"
"120219","15:42:30","14","targetincompatiblepractice","1","targetBleft","2","18","1","1651","3","Skillful","","","0"
"120219","15:42:30","14","targetincompatiblepractice","1","targetAright","3","23","1","821","2","Nice","","","0"
"120219","15:42:30","14","targetincompatiblepractice","1","targetBleft","4","18","1","616","4","Efficient","","","0"
"120219","15:42:30","14","targetincompatiblepractice","1","targetAright","5","23","1","660","1","Warm","","","0"
"120219","15:42:30","14","targetincompatiblepractice","1","targetBleft","6","18","1","655","1","Competent","","","0"
"120219","15:42:30","14","targetincompatiblepractice","1","targetAright","7","23","1","794","4","Caring","","","0"
"120219","15:42:30","14","targetincompatiblepractice","1","targetAright","8","23","1","703","3","Sociable","","","0"
"120219","15:42:30","14","targetincompatiblepractice","1","targetBleft","9","18","1","647","2","Intelligent","","","0"
"120219","15:42:30","14","targetincompatiblepractice","1","targetAright","10","23","1","666","3","Sociable","","","0"
"120219","15:42:30","14","targetincompatiblepractice","1","targetBleft","11","18","1","692","1","Competent","","","0"
"120219","15:42:30","14","targetincompatiblepractice","1","targetBleft","12","18","1","943","2","Intelligent","","","0"
"120219","15:42:30","14","targetincompatiblepractice","1","targetAright","13","23","1","604","2","Nice","","","0"
"120219","15:42:30","14","targetincompatiblepractice","1","targetBleft","14","18","1","609","3","Skillful","","","0"
"120219","15:42:30","14","targetincompatiblepractice","1","targetBleft","15","18","1","728","4","Efficient","","","0"
"120219","15:42:30","14","targetincompatiblepractice","1","targetAright","16","23","1","573","4","Caring","","","0"
"120219","15:42:30","14","targetincompatiblepractice","1","targetAright","17","23","1","739","1","Warm","","","0"
"120219","15:42:30","14","targetincompatiblepractice","1","targetBleft","18","18","1","643","3","Skillful","","","0"
"120219","15:42:30","14","targetincompatiblepractice","1","targetAright","19","23","1","526","2","Nice","","","0"
"120219","15:42:30","14","targetincompatiblepractice","1","targetAright","20","23","1","646","4","Caring","","","0"
"120219","15:42:30","14","targetincompatiblepractice","1","targetBleft","21","18","1","609","4","Efficient","","","0"
"120219","15:42:30","14","attributepractice","2","attributeB","2","23","1","2442","1","Negative","","","0"
"120219","15:42:30","14","attributepractice","2","attributeA","3","18","1","1043","1","Positive","","","0"
"120219","15:42:30","14","attributepractice","2","attributeA","4","18","1","598","4","Great","","","0"
"120219","15:42:30","14","attributepractice","2","attributeA","5","18","1","627","3","Pleasant","","","0"
"120219","15:42:30","14","attributepractice","2","attributeB","6","23","1","631","4","Awful","","","0"
"120219","15:42:30","14","attributepractice","2","attributeB","7","23","1","610","3","Unpleasant","","","0"
"120219","15:42:30","14","attributepractice","2","attributeA","8","18","1","607","2","Good","","","0"
"120219","15:42:30","14","attributepractice","2","attributeB","9","23","1","459","2","Bad","","","0"
"120219","15:42:30","14","attributepractice","2","attributeB","10","23","1","878","3","Unpleasant","","","0"
"120219","15:42:30","14","attributepractice","2","attributeA","11","18","1","576","3","Pleasant","","","0"
"120219","15:42:30","14","attributepractice","2","attributeA","12","18","1","566","1","Positive","","","0"
"120219","15:42:30","14","attributepractice","2","attributeB","13","23","1","492","1","Negative","","","0"
"120219","15:42:30","14","attributepractice","2","attributeB","14","23","1","669","4","Awful","","","0"
"120219","15:42:30","14","attributepractice","2","attributeA","15","18","1","631","2","Good","","","0"
"120219","15:42:30","14","attributepractice","2","attributeA","16","18","1","546","4","Great","","","0"
"120219","15:42:30","14","attributepractice","2","attributeB","17","23","1","618","2","Bad","","","0"
"120219","15:42:30","14","attributepractice","2","attributeA","18","18","1","550","4","Great","","","0"
"120219","15:42:30","14","attributepractice","2","attributeA","19","18","1","604","1","Positive","","","0"
"120219","15:42:30","14","attributepractice","2","attributeB","20","23","1","633","1","Negative","","","0"
"120219","15:42:30","14","attributepractice","2","attributeB","21","23","1","629","4","Awful","","","0"
"120219","15:42:30","14","incompatibletest1","3","attributeA","2","18","1","1584","2","Good","","","0"
"120219","15:42:30","14","incompatibletest1","3","targetAright","3","23","1","2253","3","Sociable","1.3353535510559071398","","0.6676767755279535699"
"120219","15:42:30","14","incompatibletest1","3","attributeB","4","23","1","1077","2","Bad","1.4076443399736866535","","0.7038221699868433268"
"120219","15:42:30","14","incompatibletest1","3","targetBleft","5","18","1","919","1","Competent","1.4097268380659655485","","0.7048634190329827742"
"120219","15:42:30","14","incompatibletest1","3","attributeB","6","23","1","735","3","Unpleasant","1.3734496334958650188","","0.6867248167479325094"
"120219","15:42:30","14","incompatibletest1","3","targetAright","7","23","1","2078","1","Warm","1.4262853950886680288","","0.7131426975443340144"
"120219","15:42:30","14","incompatibletest1","3","attributeA","8","18","1","1463","3","Pleasant","1.4896381022743394595","","0.7448190511371697298"
"120219","15:42:30","14","incompatibletest1","3","targetBleft","9","18","1","1368","2","Intelligent","1.5354641152202945786","","0.7677320576101472893"
"120219","15:42:30","14","incompatibletest1","3","attributeA","10","18","1","838","2","Good","1.515277465728038786","","0.757638732864019393"
"120219","15:42:30","14","incompatibletest1","3","targetBleft","11","18","1","801","3","Skillful","1.4978124492221929209","","0.7489062246110964605"
"120219","15:42:30","14","incompatibletest1","3","attributeB","12","23","1","638","4","Awful","1.4621966132148975781","","0.7310983066074487891"
"120219","15:42:30","14","incompatibletest1","3","targetAright","13","23","1","1729","4","Caring","1.4928154786759821882","","0.7464077393379910941"
"120219","15:42:30","14","incompatibletest1","3","attributeB","14","23","1","1232","1","Negative","1.5188940936430421758","","0.7594470468215210879"
"120219","15:42:30","14","incompatibletest1","3","targetAright","15","23","1","1387","2","Nice","1.5465215717965390407","","0.7732607858982695204"
"120219","15:42:30","14","incompatibletest1","3","attributeA","16","18","1","1400","1","Positive","1.571273474331069897","","0.7856367371655349485"
"120219","15:42:30","14","incompatibletest1","3","targetBleft","17","18","1","1012","1","Competent","1.5782194743049489105","","0.7891097371524744553"
"120219","15:42:30","14","incompatibletest1","3","attributeB","18","23","1","792","2","Bad","1.5676916198261665603","","0.7838458099130832801"
"120219","15:42:30","14","incompatibletest1","3","targetBleft","19","18","1","1224","4","Efficient","1.5850287311095514475","","0.7925143655547757238"
"120219","15:42:30","14","incompatibletest1","3","attributeA","20","18","1","1521","4","Great","1.602529461361360541","","0.8012647306806802705"
"120219","15:42:30","14","incompatibletest1","3","targetAright","21","23","1","2144","3","Sociable","1.5877114259508040561","","0.7938557129754020281"
"120219","15:42:30","14","incompatibletest2","5","attributeB","1","23","1","1598","3","Unpleasant","1.5877114259508040561","","0.7938557129754020281"
"120219","15:42:30","14","incompatibletest2","5","targetBleft","2","18","1","730","2","Intelligent","1.5877114259508040561","1.1337040911230036322","1.3607077585369038442"
"120219","15:42:30","14","incompatibletest2","5","attributeA","3","18","1","1306","3","Pleasant","1.5877114259508040561","1.403106634606024361","1.4954090302784142086"
"120219","15:42:30","14","incompatibletest2","5","targetAright","4","23","1","850","1","Warm","1.5877114259508040561","1.4699539973749395916","1.5288327116628717128"
"120219","15:42:30","14","incompatibletest2","5","attributeA","5","18","1","1908","1","Positive","1.5877114259508040561","1.4697033709015445702","1.5287073984261743131"
"120219","15:42:30","14","incompatibletest2","5","targetAright","6","23","1","988","2","Nice","1.5877114259508040561","1.508731662789264405","1.5482215443700342306"
"120219","15:42:30","14","incompatibletest2","5","attributeA","7","18","1","913","3","Pleasant","1.5877114259508040561","1.5302694798075608951","1.5589904528791824756"
"120219","15:42:30","14","incompatibletest2","5","targetAright","8","23","1","1241","4","Caring","1.5877114259508040561","1.5798404820395322012","1.5837759539951681287"
"120219","15:42:30","14","incompatibletest2","5","attributeA","9","18","1","884","4","Great","1.5877114259508040561","1.589688628044515939","1.5887000269976598865"
"120219","15:42:30","14","incompatibletest2","5","targetBleft","10","18","1","997","2","Intelligent","1.5877114259508040561","1.6129461001356175665","1.6003287630432108113"
"120219","15:42:30","14","incompatibletest2","5","attributeA","11","18","1","826","2","Good","1.5877114259508040561","1.6153038895896072447","1.6015076577702056504"
"120219","15:42:30","14","incompatibletest2","5","targetBleft","12","18","1","574","1","Competent","1.5877114259508040561","1.5795439460355764627","1.5836276859931901484"
"120219","15:42:30","14","incompatibletest2","5","attributeB","13","23","1","604","2","Bad","1.5877114259508040561","1.5578730791568815572","1.5727922525538429177"
"120219","15:42:30","14","incompatibletest2","5","targetBleft","14","18","1","792","4","Efficient","1.5877114259508040561","1.5655281518983732436","1.5766197889245887609"
"120219","15:42:30","14","incompatibletest2","5","attributeA","15","18","1","622","1","Positive","1.5877114259508040561","1.5538287698946360305","1.5707700979227201543"
"120219","15:42:30","14","incompatibletest2","5","targetBleft","16","18","1","866","3","Skillful","1.5877114259508040561","1.5687073217947988812","1.5782093738728013577"
"120219","15:42:30","14","incompatibletest2","5","attributeB","17","23","1","691","3","Unpleasant","1.5877114259508040561","1.5682541829610785467","1.5779828044559414124"
"120219","15:42:30","14","incompatibletest2","5","targetBleft","18","18","1","973","2","Intelligent","1.5877114259508040561","1.5865882445625385522","1.5871498352566713042"
"120219","15:42:30","14","incompatibletest2","5","attributeB","19","23","1","602","4","Awful","1.5877114259508040561","1.5773549756088027785","1.5825332007798034173"
"120219","15:42:30","14","incompatibletest2","5","targetBleft","20","18","1","623","4","Efficient","1.5877114259508040561","1.5722721515938145043","1.5799917887723093912"
"120219","15:42:30","14","incompatibletest2","5","attributeB","21","23","1","586","1","Negative","1.5877114259508040561","1.5648178888800192698","1.576264657415411552"
"120219","15:42:30","14","incompatibletest2","5","targetBleft","22","18","1","632","3","Skillful","1.5877114259508040561","1.5631753342669449935","1.5754433801088745248"
"120219","15:42:30","14","incompatibletest2","5","attributeA","23","18","1","595","3","Pleasant","1.5877114259508040561","1.5590814530091259282","1.5733964394799651032"
"120219","15:42:30","14","incompatibletest2","5","targetAright","24","23","1","1281","1","Warm","1.5877114259508040561","1.567217788469684292","1.5774646072102442851"
"120219","15:42:30","14","incompatibletest2","5","attributeB","25","23","1","850","2","Bad","1.5877114259508040561","1.5783865743548086691","1.5830490001528063626"
"120219","15:42:30","14","incompatibletest2","5","targetAright","26","23","1","972","3","Sociable","1.5877114259508040561","1.5915931038647868068","1.5896522649077953204"
"120219","15:42:30","14","incompatibletest2","5","attributeA","27","18","1","762","2","Good","1.5877114259508040561","1.5979247401381244664","1.5928180830444642613"
"120219","15:42:30","14","incompatibletest2","5","targetAright","28","23","1","1169","2","Nice","1.5877114259508040561","1.6077499022607284473","1.5977306641057662517"
"120219","15:42:30","14","incompatibletest2","5","attributeA","29","18","1","926","4","Great","1.5877114259508040561","1.6183250025825273166","1.6030182142666657974"
"120219","15:42:30","14","incompatibletest2","5","targetBleft","30","18","1","1021","1","Competent","1.5877114259508040561","1.6290534252290769235","1.6083824255899403788"
"120219","15:42:30","14","incompatibletest2","5","attributeA","31","18","1","777","3","Pleasant","1.5877114259508040561","1.6342722720188596064","1.6109918489848318313"
"120219","15:42:30","14","incompatibletest2","5","targetAright","32","23","1","607","1","Warm","1.5877114259508040561","1.6302180021333323445","1.6089647140420682003"
"120219","15:42:30","14","incompatibletest2","5","attributeB","33","23","1","755","1","Negative","1.5877114259508040561","1.6346600142613885165","1.6111857201060963973"
"120219","15:42:30","14","incompatibletest2","5","targetAright","34","23","0","1482","3","Sociable","1.5877114259508040561","1.6255556797264962832","1.6066335528386501696"
"120219","15:42:30","14","incompatibletest2","5","attributeB","35","23","1","1051","3","Unpleasant","1.5877114259508040561","1.6345084663309996653","1.6111099461409019717"
"120219","15:42:30","14","incompatibletest2","5","targetAright","36","23","1","733","4","Caring","1.5877114259508040561","1.6370505935760581995","1.6123810097634310168"
"120219","15:42:30","14","incompatibletest2","5","attributeB","37","23","1","604","4","Awful","1.5877114259508040561","1.633152207994262417","1.6104318169725333476"
"120219","15:42:30","14","incompatibletest2","5","targetBleft","38","18","1","1561","2","Intelligent","1.5877114259508040561","1.620604308977249941","1.6041578674640271096"
"120219","15:42:30","14","incompatibletest2","5","attributeB","39","23","1","654","3","Unpleasant","1.5877114259508040561","1.6194531783093881749","1.6035823021300961155"
"120219","15:42:30","14","incompatibletest2","5","targetAright","40","23","1","793","1","Warm","1.5877114259508040561","1.6239946887108445139","1.605853057330824285"
"120219","15:42:30","14","targetcompatiblepracticeswitch","6","targetBright","2","23","1","2077","3","Skillful","1.5877114259508040561","1.6239946887108445139","1.605853057330824285"
"120219","15:42:30","14","targetcompatiblepracticeswitch","6","targetBright","3","23","1","798","4","Efficient","1.5877114259508040561","1.6239946887108445139","1.605853057330824285"
"120219","15:42:30","14","targetcompatiblepracticeswitch","6","targetBright","4","23","1","836","1","Competent","1.5877114259508040561","1.6239946887108445139","1.605853057330824285"
"120219","15:42:30","14","targetcompatiblepracticeswitch","6","targetAleft","5","18","1","854","4","Caring","1.5877114259508040561","1.6239946887108445139","1.605853057330824285"
"120219","15:42:30","14","targetcompatiblepracticeswitch","6","targetAleft","6","18","1","616","3","Sociable","1.5877114259508040561","1.6239946887108445139","1.605853057330824285"
"120219","15:42:30","14","targetcompatiblepracticeswitch","6","targetAleft","7","18","1","676","2","Nice","1.5877114259508040561","1.6239946887108445139","1.605853057330824285"
"120219","15:42:30","14","targetcompatiblepracticeswitch","6","targetBright","8","23","1","630","1","Competent","1.5877114259508040561","1.6239946887108445139","1.605853057330824285"
"120219","15:42:30","14","targetcompatiblepracticeswitch","6","targetAleft","9","18","1","818","2","Nice","1.5877114259508040561","1.6239946887108445139","1.605853057330824285"
"120219","15:42:30","14","targetcompatiblepracticeswitch","6","targetAleft","10","18","1","693","1","Warm","1.5877114259508040561","1.6239946887108445139","1.605853057330824285"
"120219","15:42:30","14","targetcompatiblepracticeswitch","6","targetBright","11","23","1","663","4","Efficient","1.5877114259508040561","1.6239946887108445139","1.605853057330824285"
"120219","15:42:30","14","targetcompatiblepracticeswitch","6","targetBright","12","23","1","673","3","Skillful","1.5877114259508040561","1.6239946887108445139","1.605853057330824285"
"120219","15:42:30","14","targetcompatiblepracticeswitch","6","targetBright","13","23","1","595","2","Intelligent","1.5877114259508040561","1.6239946887108445139","1.605853057330824285"
"120219","15:42:30","14","targetcompatiblepracticeswitch","6","targetAleft","14","18","1","704","4","Caring","1.5877114259508040561","1.6239946887108445139","1.605853057330824285"
"120219","15:42:30","14","targetcompatiblepracticeswitch","6","targetAleft","15","18","1","577","3","Sociable","1.5877114259508040561","1.6239946887108445139","1.605853057330824285"
"120219","15:42:30","14","targetcompatiblepracticeswitch","6","targetBright","16","23","1","959","1","Competent","1.5877114259508040561","1.6239946887108445139","1.605853057330824285"
"120219","15:42:30","14","targetcompatiblepracticeswitch","6","targetAleft","17","18","1","693","2","Nice","1.5877114259508040561","1.6239946887108445139","1.605853057330824285"
"120219","15:42:30","14","targetcompatiblepracticeswitch","6","targetBright","18","23","1","1518","4","Efficient","1.5877114259508040561","1.6239946887108445139","1.605853057330824285"
"120219","15:42:30","14","targetcompatiblepracticeswitch","6","targetBright","19","23","1","829","3","Skillful","1.5877114259508040561","1.6239946887108445139","1.605853057330824285"
"120219","15:42:30","14","targetcompatiblepracticeswitch","6","targetAleft","20","18","1","721","1","Warm","1.5877114259508040561","1.6239946887108445139","1.605853057330824285"
"120219","15:42:30","14","targetcompatiblepracticeswitch","6","targetBright","21","23","1","689","2","Intelligent","1.5877114259508040561","1.6239946887108445139","1.605853057330824285"
"120219","15:42:30","14","targetcompatiblepracticeswitch","6","targetAleft","22","18","1","754","4","Caring","1.5877114259508040561","1.6239946887108445139","1.605853057330824285"
"120219","15:42:30","14","targetcompatiblepracticeswitch","6","targetAleft","23","18","0","1313","3","Sociable","1.5877114259508040561","1.6239946887108445139","1.605853057330824285"
"120219","15:42:30","14","targetcompatiblepracticeswitch","6","targetAleft","24","18","1","784","1","Warm","1.5877114259508040561","1.6239946887108445139","1.605853057330824285"
"120219","15:42:30","14","targetcompatiblepracticeswitch","6","targetBright","25","23","1","917","1","Competent","1.5877114259508040561","1.6239946887108445139","1.605853057330824285"
"120219","15:42:30","14","targetcompatiblepracticeswitch","6","targetBright","26","23","1","1621","3","Skillful","1.5877114259508040561","1.6239946887108445139","1.605853057330824285"
"120219","15:42:30","14","targetcompatiblepracticeswitch","6","targetAleft","27","18","1","736","2","Nice","1.5877114259508040561","1.6239946887108445139","1.605853057330824285"
"120219","15:42:30","14","targetcompatiblepracticeswitch","6","targetBright","28","23","1","2327","4","Efficient","1.5877114259508040561","1.6239946887108445139","1.605853057330824285"
"120219","15:42:30","14","targetcompatiblepracticeswitch","6","targetAleft","29","18","1","870","4","Caring","1.5877114259508040561","1.6239946887108445139","1.605853057330824285"
"120219","15:42:30","14","targetcompatiblepracticeswitch","6","targetAleft","30","18","1","568","3","Sociable","1.5877114259508040561","1.6239946887108445139","1.605853057330824285"
"120219","15:42:30","14","targetcompatiblepracticeswitch","6","targetBright","31","23","1","597","2","Intelligent","1.5877114259508040561","1.6239946887108445139","1.605853057330824285"
"120219","15:42:30","14","targetcompatiblepracticeswitch","6","targetAleft","32","18","1","651","3","Sociable","1.5877114259508040561","1.6239946887108445139","1.605853057330824285"
"120219","15:42:30","14","targetcompatiblepracticeswitch","6","targetBright","33","23","1","669","3","Skillful","1.5877114259508040561","1.6239946887108445139","1.605853057330824285"
"120219","15:42:30","14","targetcompatiblepracticeswitch","6","targetBright","34","23","1","1231","1","Competent","1.5877114259508040561","1.6239946887108445139","1.605853057330824285"
"120219","15:42:30","14","targetcompatiblepracticeswitch","6","targetAleft","35","18","1","674","1","Warm","1.5877114259508040561","1.6239946887108445139","1.605853057330824285"
"120219","15:42:30","14","targetcompatiblepracticeswitch","6","targetBright","36","23","1","725","4","Efficient","1.5877114259508040561","1.6239946887108445139","1.605853057330824285"
"120219","15:42:30","14","targetcompatiblepracticeswitch","6","targetBright","37","23","0","1268","2","Intelligent","1.5877114259508040561","1.6239946887108445139","1.605853057330824285"
"120219","15:42:30","14","targetcompatiblepracticeswitch","6","targetAleft","38","18","1","1317","2","Nice","1.5877114259508040561","1.6239946887108445139","1.605853057330824285"
"120219","15:42:30","14","targetcompatiblepracticeswitch","6","targetBright","39","23","1","1084","4","Efficient","1.5877114259508040561","1.6239946887108445139","1.605853057330824285"
"120219","15:42:30","14","targetcompatiblepracticeswitch","6","targetAleft","40","18","1","765","4","Caring","1.5877114259508040561","1.6239946887108445139","1.605853057330824285"
"120219","15:42:30","14","targetcompatiblepracticeswitch","6","targetAleft","41","18","1","659","4","Caring","1.5877114259508040561","1.6239946887108445139","1.605853057330824285"
"120219","15:42:30","14","compatibletest1","7","attributeB","2","23","1","1097","2","Bad","0.4440940936945007023","1.6239946887108445139","1.0340443912026726636"
"120219","15:42:30","14","compatibletest1","7","targetBright","3","23","1","1673","2","Intelligent","-0.1616723164102743249","1.6239946887108445139","0.7311611861502851362"
"120219","15:42:30","14","compatibletest1","7","attributeA","4","18","1","698","4","Great","0.3235164797336587128","1.6239946887108445139","0.9737555842222516134"
"120219","15:42:30","14","compatibletest1","7","targetBright","5","23","1","1363","3","Skillful","0.2203683667593672457","1.6239946887108445139","0.922181527735105866"
"120219","15:42:30","14","compatibletest1","7","attributeA","6","18","1","801","2","Good","0.3936124126244536225","1.6239946887108445139","1.0088035506676491515"
"120219","15:42:30","14","compatibletest1","7","targetAleft","7","18","0","1437","2","Nice","0.2887821601911981784","1.6239946887108445139","0.9563884244510213462"
"120219","15:42:30","14","compatibletest1","7","attributeA","8","18","1","2023","1","Positive","0.023283887893268327","1.6239946887108445139","0.8236392883020564604"
"120219","15:42:30","14","compatibletest1","7","targetAleft","9","18","1","1197","1","Warm","0.051406290866935711","1.6239946887108445139","0.8377004897888901125"
"120219","15:42:30","14","compatibletest1","7","attributeB","10","23","1","1023","1","Negative","0.1163407544223011569","1.6239946887108445139","0.8701677215665728493"
"120219","15:42:30","14","compatibletest1","7","targetAleft","11","18","1","2394","3","Sociable","-0.124283218368464024","1.6239946887108445139","0.7498557351711901964"
"120219","15:42:30","14","compatibletest1","7","attributeA","12","18","1","726","4","Great","-0.0045606791234016324","1.6239946887108445139","0.8097170047937214399"
"120219","15:42:30","14","compatibletest1","7","targetBright","13","23","1","990","1","Competent","0.0503105405184124041","1.6239946887108445139","0.8371526146146284209"
"120219","15:42:30","14","compatibletest1","7","attributeB","14","23","1","811","4","Awful","0.1249997930743432378","1.6239946887108445139","0.8744972408925938412"
"120219","15:42:30","14","compatibletest1","7","targetAleft","15","18","1","944","2","Nice","0.170915793480344691","1.6239946887108445139","0.8974552410955946025"
"120219","15:42:30","14","compatibletest1","7","attributeB","16","23","1","871","4","Awful","0.2209313413530739623","1.6239946887108445139","0.9224630150319592659"
"120219","15:42:30","14","compatibletest1","7","targetAleft","17","18","1","768","4","Caring","0.277217577373074231","1.6239946887108445139","0.9506061330419594002"
"120219","15:42:30","14","compatibletest1","7","attributeA","18","18","1","718","3","Pleasant","0.3322161055177978994","1.6239946887108445139","0.9781053971143212067"
"120219","15:42:30","14","compatibletest1","7","targetBright","19","23","1","694","4","Efficient","0.3833478276766003057","1.6239946887108445139","1.003671258193722382"
"120219","15:42:30","14","compatibletest1","7","attributeB","20","23","1","1319","1","Negative","0.3668501948493060327","1.6239946887108445139","0.9954224417800752178"
"120219","15:42:30","14","compatibletest1","7","targetBright","21","23","0","3398","3","Skillful","0.1069302501118507692","1.6239946887108445139","0.8654624694113476346"
"120219","15:42:30","14","compatibletest2","9","attributeA","1","18","1","1244","1","Positive","0.1069302501118507692","-0.9347289323498104707","-0.4138993411189798577"
"120219","15:42:30","14","compatibletest2","9","targetBright","2","23","1","975","1","Competent","0.1069302501118507692","-0.6077864173798096514","-0.250428083633979448"
"120219","15:42:30","14","compatibletest2","9","attributeA","3","18","1","852","2","Good","0.1069302501118507692","-0.3602257702353074964","-0.1266477600617283705"
"120219","15:42:30","14","compatibletest2","9","targetAleft","4","18","1","1695","3","Sociable","0.1069302501118507692","-0.8053477483196676001","-0.3492087491039084224"
"120219","15:42:30","14","compatibletest2","9","attributeA","5","18","1","832","2","Good","0.1069302501118507692","-0.6230658516937372937","-0.2580678007909432692"
"120219","15:42:30","14","compatibletest2","9","targetBright","6","23","1","754","2","Intelligent","0.1069302501118507692","-0.4528381855507796483","-0.1729539677194644465"
"120219","15:42:30","14","compatibletest2","9","attributeB","7","23","1","609","2","Bad","0.1069302501118507692","-0.2599674278442742348","-0.0765185888662117397"
"120219","15:42:30","14","compatibletest2","9","targetBright","8","23","1","806","3","Skillful","0.1069302501118507692","-0.1896517227563814245","-0.0413607363222653276"
"120219","15:42:30","14","compatibletest2","9","attributeA","9","18","1","1210","1","Positive","0.1069302501118507692","-0.2724774588655002883","-0.0827736043768247665"
"120219","15:42:30","14","compatibletest2","9","targetBright","10","23","1","702","1","Competent","0.1069302501118507692","-0.1818215556289565493","-0.03744565275855289"
"120219","15:42:30","14","compatibletest2","9","attributeA","11","18","1","839","3","Pleasant","0.1069302501118507692","-0.1465060362546719286","-0.0197878930714105797"
"120219","15:42:30","14","compatibletest2","9","targetBright","12","23","1","1098","2","Intelligent","0.1069302501118507692","-0.1851580677355478544","-0.0391139088118485426"
"120219","15:42:30","14","compatibletest2","9","attributeA","13","18","1","731","4","Great","0.1069302501118507692","-0.1278521066666724604","-0.0104609282774108456"
"120219","15:42:30","14","compatibletest2","9","targetAleft","14","18","1","1042","1","Warm","0.1069302501118507692","-0.1502062558195822739","-0.0216380028538657523"
"120219","15:42:30","14","compatibletest2","9","attributeA","15","18","1","757","4","Great","0.1069302501118507692","-0.1079255152951893032","-0.000497632591669267"
"120219","15:42:30","14","compatibletest2","9","targetBright","16","23","1","724","4","Efficient","0.1069302501118507692","-0.0636342815711421206","0.0216479842703543243"
"120219","15:42:30","14","compatibletest2","9","attributeA","17","18","1","1587","1","Positive","0.1069302501118507692","-0.1843076073891293798","-0.0386886786386393053"
"120219","15:42:30","14","compatibletest2","9","targetAleft","18","18","1","912","1","Warm","0.1069302501118507692","-0.1759962234796152991","-0.0345329866838822649"
"120219","15:42:30","14","compatibletest2","9","attributeB","19","23","1","825","3","Unpleasant","0.1069302501118507692","-0.1536324281047845575","-0.0233510889964668941"
"120219","15:42:30","14","compatibletest2","9","targetBright","20","23","1","964","4","Efficient","0.1069302501118507692","-0.1559812886722348468","-0.0245255192801920388"
"120219","15:42:30","14","compatibletest2","9","attributeB","21","23","1","675","4","Awful","0.1069302501118507692","-0.1124792646690957881","-0.0027745072786225095"
"120219","15:42:30","14","compatibletest2","9","targetAleft","22","18","1","860","4","Caring","0.1069302501118507692","-0.1007511716852704242","0.0030895392132901725"
"120219","15:42:30","14","compatibletest2","9","attributeB","23","23","1","663","1","Negative","0.1069302501118507692","-0.0611822462355371341","0.0228740019381568176"
"120219","15:42:30","14","compatibletest2","9","targetAleft","24","18","1","882","2","Nice","0.1069302501118507692","-0.0552226912381303739","0.0258537794368601977"
"120219","15:42:30","14","compatibletest2","9","attributeB","25","23","1","659","2","Bad","0.1069302501118507692","-0.0196776115388718198","0.0436263192864894747"
"120219","15:42:30","14","compatibletest2","9","targetBright","26","23","1","1365","3","Skillful","0.1069302501118507692","-0.0765105735881309174","0.0152098382618599259"
"120219","15:42:30","14","compatibletest2","9","attributeB","27","23","1","1195","3","Unpleasant","0.1069302501118507692","-0.108670756487423692","-0.0008702531877864614"
"120219","15:42:30","14","compatibletest2","9","targetBright","28","23","1","776","1","Competent","0.1069302501118507692","-0.089489634891721237","0.0087203076100647661"
"120219","15:42:30","14","compatibletest2","9","attributeB","29","23","1","629","2","Bad","0.1069302501118507692","-0.0542224043174189749","0.0263539228972158972"
"120219","15:42:30","14","compatibletest2","9","targetAleft","30","18","1","970","3","Sociable","0.1069302501118507692","-0.0594897541291191032","0.023720247991365833"
"120219","15:42:30","14","compatibletest2","9","attributeB","31","23","1","663","4","Awful","0.1069302501118507692","-0.0309446034556531899","0.0379928233280987931"
"120219","15:42:30","14","compatibletest2","9","targetBright","32","23","1","1259","2","Intelligent","0.1069302501118507692","-0.0664389755332968207","0.0202456372892769743"
"120219","15:42:30","14","compatibletest2","9","attributeB","33","23","1","676","3","Unpleasant","0.1069302501118507692","-0.0407784399789746857","0.0330759050664380383"
"120219","15:42:30","14","compatibletest2","9","targetAleft","34","18","1","942","4","Caring","0.1069302501118507692","-0.0430348204055001141","0.0319477148531753241"
"120219","15:42:30","14","compatibletest2","9","attributeA","35","18","1","853","3","Pleasant","0.1069302501118507692","-0.0365392250968717969","0.0351955125074894862"
"120219","15:42:30","14","compatibletest2","9","targetAleft","36","18","1","1607","3","Sociable","0.1069302501118507692","-0.0985068801212495154","0.0042116849953006269"
"120219","15:42:30","14","compatibletest2","9","attributeA","37","18","1","747","2","Good","0.1069302501118507692","-0.0816420419675465553","0.012644104072152107"
"120219","15:42:30","14","compatibletest2","9","targetAleft","38","18","1","930","1","Warm","0.1069302501118507692","-0.0817754182951879738","0.0125774159083313977"
"120219","15:42:30","14","compatibletest2","9","attributeB","39","23","1","722","1","Negative","0.1069302501118507692","-0.0638020723353979191","0.0215640888882264251"
"120219","15:42:30","14","compatibletest2","9","targetAleft","40","18","1","738","2","Nice","0.1069302501118507692","-0.047981807904598571","0.0294742211036260991"
"120219","10:45:19","30","targetincompatiblepractice","1","targetAright","2","23","1","1165","4","Caring","","","0"
"120219","10:45:19","30","targetincompatiblepractice","1","targetBleft","3","18","1","645","1","Competent","","","0"
"120219","10:45:19","30","targetincompatiblepractice","1","targetAright","4","23","1","856","3","Sociable","","","0"
"120219","10:45:19","30","targetincompatiblepractice","1","targetBleft","5","18","1","901","3","Skillful","","","0"
"120219","10:45:19","30","targetincompatiblepractice","1","targetBleft","6","18","1","999","4","Efficient","","","0"
"120219","10:45:19","30","targetincompatiblepractice","1","targetAright","7","23","1","917","2","Nice","","","0"
"120219","10:45:19","30","targetincompatiblepractice","1","targetAright","8","23","1","720","1","Warm","","","0"
"120219","10:45:19","30","targetincompatiblepractice","1","targetAright","9","23","1","603","4","Caring","","","0"
"120219","10:45:19","30","targetincompatiblepractice","1","targetAright","10","23","1","730","3","Sociable","","","0"
"120219","10:45:19","30","targetincompatiblepractice","1","targetBleft","11","18","1","737","2","Intelligent","","","0"
"120219","10:45:19","30","targetincompatiblepractice","1","targetAright","12","23","1","746","2","Nice","","","0"
"120219","10:45:19","30","targetincompatiblepractice","1","targetAright","13","23","1","969","1","Warm","","","0"
"120219","10:45:19","30","targetincompatiblepractice","1","targetAright","14","23","1","434","2","Nice","","","0"
"120219","10:45:19","30","targetincompatiblepractice","1","targetBleft","15","18","1","476","1","Competent","","","0"
"120219","10:45:19","30","targetincompatiblepractice","1","targetBleft","16","18","0","974","2","Intelligent","","","0"
"120219","10:45:19","30","targetincompatiblepractice","1","targetAright","17","23","1","676","3","Sociable","","","0"
"120219","10:45:19","30","targetincompatiblepractice","1","targetBleft","18","18","1","936","4","Efficient","","","0"
"120219","10:45:19","30","targetincompatiblepractice","1","targetBleft","19","18","1","1208","3","Skillful","","","0"
"120219","10:45:19","30","targetincompatiblepractice","1","targetBleft","20","18","0","1330","1","Competent","","","0"
"120219","10:45:19","30","targetincompatiblepractice","1","targetBleft","21","18","1","782","3","Skillful","","","0"
"120219","10:45:19","30","attributepractice","2","attributeA","2","18","1","1161","1","Positive","","","0"
"120219","10:45:19","30","attributepractice","2","attributeA","3","18","1","637","3","Pleasant","","","0"
"120219","10:45:19","30","attributepractice","2","attributeB","4","23","1","692","4","Awful","","","0"
"120219","10:45:19","30","attributepractice","2","attributeA","5","18","1","553","4","Great","","","0"
"120219","10:45:19","30","attributepractice","2","attributeB","6","23","1","518","2","Bad","","","0"
"120219","10:45:19","30","attributepractice","2","attributeA","7","18","1","562","2","Good","","","0"
"120219","10:45:19","30","attributepractice","2","attributeA","8","18","1","688","4","Great","","","0"
"120219","10:45:19","30","attributepractice","2","attributeA","9","18","1","541","3","Pleasant","","","0"
"120219","10:45:19","30","attributepractice","2","attributeB","10","23","1","551","1","Negative","","","0"
"120219","10:45:19","30","attributepractice","2","attributeB","11","23","1","636","3","Unpleasant","","","0"
"120219","10:45:19","30","attributepractice","2","attributeB","12","23","1","455","2","Bad","","","0"
"120219","10:45:19","30","attributepractice","2","attributeA","13","18","1","485","2","Good","","","0"
"120219","10:45:19","30","attributepractice","2","attributeA","14","18","1","582","1","Positive","","","0"
"120219","10:45:19","30","attributepractice","2","attributeB","15","23","1","639","4","Awful","","","0"
"120219","10:45:19","30","attributepractice","2","attributeB","16","23","1","1472","1","Negative","","","0"
"120219","10:45:19","30","attributepractice","2","attributeB","17","23","1","1088","3","Unpleasant","","","0"
"120219","10:45:19","30","attributepractice","2","attributeB","18","23","1","484","1","Negative","","","0"
"120219","10:45:19","30","attributepractice","2","attributeB","19","23","1","559","4","Awful","","","0"
"120219","10:45:19","30","attributepractice","2","attributeA","20","18","1","585","2","Good","","","0"
"120219","10:45:19","30","attributepractice","2","attributeA","21","18","1","489","4","Great","","","0"
"120219","10:45:19","30","incompatibletest1","3","attributeB","2","23","1","997","3","Unpleasant","","","0"
"120219","10:45:19","30","incompatibletest1","3","targetBleft","3","18","1","1166","2","Intelligent","1.3972569387471838187","","0.6986284693735919094"
"120219","10:45:19","30","incompatibletest1","3","attributeB","4","23","1","790","2","Bad","1.558695014293624892","","0.779347507146812446"
"120219","10:45:19","30","incompatibletest1","3","targetBleft","5","18","1","786","4","Efficient","1.6403429019928654764","","0.8201714509964327382"
"120219","10:45:19","30","incompatibletest1","3","attributeA","6","18","1","911","3","Pleasant","1.7108144901753552514","","0.8554072450876776257"
"120219","10:45:19","30","incompatibletest1","3","targetAright","7","23","1","1210","4","Caring","1.7281226351456238088","","0.8640613175728119044"
"120219","10:45:19","30","incompatibletest1","3","attributeA","8","18","1","893","1","Positive","1.7608818642146446543","","0.8804409321073223271"
"120219","10:45:19","30","incompatibletest1","3","targetBleft","9","18","1","906","1","Competent","1.7873504312976185027","","0.8936752156488092513"
"120219","10:45:19","30","incompatibletest1","3","attributeB","10","23","1","639","2","Bad","1.7670339071258140962","","0.8835169535629070481"
"120219","10:45:19","30","incompatibletest1","3","targetBleft","11","18","1","1377","3","Skillful","1.7371225425091205707","","0.8685612712545602854"
"120219","10:45:19","30","incompatibletest1","3","attributeB","12","23","1","729","1","Negative","1.7374394660527716638","","0.8687197330263858319"
"120219","10:45:19","30","incompatibletest1","3","targetAright","13","23","1","811","1","Warm","1.7491389651384734449","","0.8745694825692367225"
"120219","10:45:19","30","incompatibletest1","3","attributeA","14","18","1","800","4","Great","1.759003034691931644","","0.879501517345965822"
"120219","10:45:19","30","incompatibletest1","3","targetBleft","15","18","1","2216","4","Efficient","1.5347572585160758063","","0.7673786292580379031"
"120219","10:45:19","30","incompatibletest1","3","attributeB","16","23","1","842","4","Awful","1.5477510001253111938","","0.7738755000626555969"
"120219","10:45:19","30","incompatibletest1","3","targetAright","17","23","1","1353","3","Sociable","1.5663048241120502979","","0.783152412056025149"
"120219","10:45:19","30","incompatibletest1","3","attributeA","18","18","1","851","3","Pleasant","1.5767725473802070013","","0.7883862736901035007"
"120219","10:45:19","30","incompatibletest1","3","targetAright","19","23","1","2060","2","Nice","1.5211001215947932419","","0.7605500607973966209"
"120219","10:45:19","30","incompatibletest1","3","attributeA","20","18","1","799","2","Good","1.5250155690648106166","","0.7625077845324053083"
"120219","10:45:19","30","incompatibletest1","3","targetAright","21","23","1","1059","1","Warm","1.5420753050653441818","","0.7710376525326720909"
"120219","10:45:19","30","incompatibletest2","5","attributeA","1","18","1","774","1","Positive","1.5420753050653441818","","0.7710376525326720909"
"120219","10:45:19","30","incompatibletest2","5","targetAright","2","23","1","872","4","Caring","1.5420753050653441818","1.4042927151807627073","1.4731840101230533335"
"120219","10:45:19","30","incompatibletest2","5","attributeB","3","23","1","1357","3","Unpleasant","1.5420753050653441818","1.4551580317896664063","1.498616668427505294"
"120219","10:45:19","30","incompatibletest2","5","targetBleft","4","18","1","1316","2","Intelligent","1.5420753050653441818","1.5610971293793018955","1.5515862172223231497"
"120219","10:45:19","30","incompatibletest2","5","attributeB","5","23","1","829","1","Negative","1.5420753050653441818","1.6056559389171523033","1.5738656219912483536"
"120219","10:45:19","30","incompatibletest2","5","targetBleft","6","18","1","940","2","Intelligent","1.5420753050653441818","1.6588744545591538326","1.6004748798122490072"
"120219","10:45:19","30","incompatibletest2","5","attributeA","7","18","1","1565","1","Positive","1.5420753050653441818","1.636563475671313217","1.5893193903683286994"
"120219","10:45:19","30","incompatibletest2","5","targetBleft","8","18","1","802","4","Efficient","1.5420753050653441818","1.6436672314813431939","1.5928712682733436878"
"120219","10:45:19","30","incompatibletest2","5","attributeB","9","23","1","613","3","Unpleasant","1.5420753050653441818","1.6135304370314089706","1.5778028710483766872"
"120219","10:45:19","30","incompatibletest2","5","targetBleft","10","18","1","841","3","Skillful","1.5420753050653441818","1.6327198765912107614","1.5873975908282775826"
"120219","10:45:19","30","incompatibletest2","5","attributeA","11","18","1","772","4","Great","1.5420753050653441818","1.6420801213348279468","1.5920777132000860643"
"120219","10:45:19","30","incompatibletest2","5","targetAright","12","23","1","1694","2","Nice","1.5420753050653441818","1.5993368862810792841","1.5707060956732117329"
"120219","10:45:19","30","incompatibletest2","5","attributeB","13","23","1","1699","2","Bad","1.5420753050653441818","1.58425497934429238","1.5631651422048182809"
"120219","10:45:19","30","incompatibletest2","5","targetAright","14","23","1","1476","3","Sociable","1.5420753050653441818","1.6011039633955057582","1.57158963423042497"
"120219","10:45:19","30","incompatibletest2","5","attributeB","15","23","1","723","4","Awful","1.5420753050653441818","1.5931193023438128265","1.5675973037045785041"
"120219","10:45:19","30","incompatibletest2","5","targetAright","16","23","1","1223","4","Caring","1.5420753050653441818","1.6146860537366907185","1.5783806794010173391"
"120219","10:45:19","30","incompatibletest2","5","attributeA","17","18","1","979","3","Pleasant","1.5420753050653441818","1.6281807183031791197","1.5851280116842616508"
"120219","10:45:19","30","incompatibletest2","5","targetAright","18","23","1","761","1","Warm","1.5420753050653441818","1.6254545159825590783","1.5837649105239517411"
"120219","10:45:19","30","incompatibletest2","5","attributeA","19","18","1","955","2","Good","1.5420753050653441818","1.6370059351168955164","1.5895406200911197381"
"120219","10:45:19","30","incompatibletest2","5","targetBleft","20","18","1","1076","1","Competent","1.5420753050653441818","1.651686526539816624","1.5968809158025805139"
"120219","10:45:19","30","incompatibletest2","5","attributeB","21","23","1","643","2","Bad","1.5420753050653441818","1.638977170510774517","1.5905262377880593494"
"120219","10:45:19","30","incompatibletest2","5","targetBleft","22","18","1","1326","3","Skillful","1.5420753050653441818","1.6503083178507942375","1.5961918114580693207"
"120219","10:45:19","30","incompatibletest2","5","attributeA","23","18","1","759","3","Pleasant","1.5420753050653441818","1.6487230835962183306","1.5953991943307812562"
"120219","10:45:19","30","incompatibletest2","5","targetAright","24","23","1","1049","2","Nice","1.5420753050653441818","1.6604331918034616056","1.6012542484344027827"
"120219","10:45:19","30","incompatibletest2","5","attributeA","25","18","1","919","4","Great","1.5420753050653441818","1.6677673331144839963","1.6049213190899140891"
"120219","10:45:19","30","incompatibletest2","5","targetBleft","26","18","1","910","1","Competent","1.5420753050653441818","1.6744737516840442204","1.6082745283746942011"
"120219","10:45:19","30","incompatibletest2","5","attributeA","27","18","1","1540","1","Positive","1.5420753050653441818","1.6716821667531926998","1.6068787359092684408"
"120219","10:45:19","30","incompatibletest2","5","targetAright","28","23","1","2030","4","Caring","1.5420753050653441818","1.6291986575624057831","1.5856369813138750935"
"120219","10:45:19","30","incompatibletest2","5","attributeB","29","23","1","1621","3","Unpleasant","1.5420753050653441818","1.6296988618650356528","1.5858870834651899173"
"120219","10:45:19","30","incompatibletest2","5","targetBleft","30","18","1","1544","4","Efficient","1.5420753050653441818","1.6344842667996766217","1.5882797859325104017"
"120219","10:45:19","30","incompatibletest2","5","attributeA","31","18","1","674","2","Good","1.5420753050653441818","1.6257346429733117166","1.5839049740193278382"
"120219","10:45:19","30","incompatibletest2","5","targetBleft","32","18","1","884","2","Intelligent","1.5420753050653441818","1.6287430949047880802","1.585409199985066131"
"120219","10:45:19","30","incompatibletest2","5","attributeB","33","23","1","773","1","Negative","1.5420753050653441818","1.6269197611488912525","1.5844975331071178282"
"120219","10:45:19","30","incompatibletest2","5","targetAright","34","23","1","860","3","Sociable","1.5420753050653441818","1.629298671817314581","1.5856869884413293814"
"120219","10:45:19","30","incompatibletest2","5","attributeB","35","23","1","684","4","Awful","1.5420753050653441818","1.6234985953712390838","1.5827869502182916328"
"120219","10:45:19","30","incompatibletest2","5","targetAright","36","23","1","1388","1","Warm","1.5420753050653441818","1.6304499374137284562","1.586262621239536319"
"120219","10:45:19","30","incompatibletest2","5","attributeA","37","18","1","891","3","Pleasant","1.5420753050653441818","1.6338624675521000729","1.5879688863087220163"
"120219","10:45:19","30","incompatibletest2","5","targetBleft","38","18","1","859","1","Competent","1.5420753050653441818","1.6362183201226827567","1.5891468125940133582"
"120219","10:45:19","30","incompatibletest2","5","attributeB","39","23","1","643","2","Bad","1.5420753050653441818","1.6291137623845142191","1.5855945337249290894"
"120219","10:45:19","30","incompatibletest2","5","targetAright","40","23","1","1726","2","Nice","1.5420753050653441818","1.623107085851377418","1.5825911954583609109"
"120219","10:45:19","30","targetcompatiblepracticeswitch","6","targetBright","2","23","1","1310","3","Skillful","1.5420753050653441818","1.623107085851377418","1.5825911954583609109"
"120219","10:45:19","30","targetcompatiblepracticeswitch","6","targetAleft","3","18","1","728","4","Caring","1.5420753050653441818","1.623107085851377418","1.5825911954583609109"
"120219","10:45:19","30","targetcompatiblepracticeswitch","6","targetBright","4","23","1","633","4","Efficient","1.5420753050653441818","1.623107085851377418","1.5825911954583609109"
"120219","10:45:19","30","targetcompatiblepracticeswitch","6","targetAleft","5","18","1","603","1","Warm","1.5420753050653441818","1.623107085851377418","1.5825911954583609109"
"120219","10:45:19","30","targetcompatiblepracticeswitch","6","targetBright","6","23","1","664","2","Intelligent","1.5420753050653441818","1.623107085851377418","1.5825911954583609109"
"120219","10:45:19","30","targetcompatiblepracticeswitch","6","targetAleft","7","18","0","977","3","Sociable","1.5420753050653441818","1.623107085851377418","1.5825911954583609109"
"120219","10:45:19","30","targetcompatiblepracticeswitch","6","targetAleft","8","18","1","588","1","Warm","1.5420753050653441818","1.623107085851377418","1.5825911954583609109"
"120219","10:45:19","30","targetcompatiblepracticeswitch","6","targetAleft","9","18","1","608","3","Sociable","1.5420753050653441818","1.623107085851377418","1.5825911954583609109"
"120219","10:45:19","30","targetcompatiblepracticeswitch","6","targetBright","10","23","1","602","1","Competent","1.5420753050653441818","1.623107085851377418","1.5825911954583609109"
"120219","10:45:19","30","targetcompatiblepracticeswitch","6","targetBright","11","23","1","677","2","Intelligent","1.5420753050653441818","1.623107085851377418","1.5825911954583609109"
"120219","10:45:19","30","targetcompatiblepracticeswitch","6","targetBright","12","23","1","628","4","Efficient","1.5420753050653441818","1.623107085851377418","1.5825911954583609109"
"120219","10:45:19","30","targetcompatiblepracticeswitch","6","targetAleft","13","18","1","583","4","Caring","1.5420753050653441818","1.623107085851377418","1.5825911954583609109"
"120219","10:45:19","30","targetcompatiblepracticeswitch","6","targetBright","14","23","1","684","3","Skillful","1.5420753050653441818","1.623107085851377418","1.5825911954583609109"
"120219","10:45:19","30","targetcompatiblepracticeswitch","6","targetBright","15","23","1","1460","4","Efficient","1.5420753050653441818","1.623107085851377418","1.5825911954583609109"
"120219","10:45:19","30","targetcompatiblepracticeswitch","6","targetBright","16","23","1","639","1","Competent","1.5420753050653441818","1.623107085851377418","1.5825911954583609109"
"120219","10:45:19","30","targetcompatiblepracticeswitch","6","targetBright","17","23","1","1507","3","Skillful","1.5420753050653441818","1.623107085851377418","1.5825911954583609109"
"120219","10:45:19","30","targetcompatiblepracticeswitch","6","targetBright","18","23","1","659","2","Intelligent","1.5420753050653441818","1.623107085851377418","1.5825911954583609109"
"120219","10:45:19","30","targetcompatiblepracticeswitch","6","targetAleft","19","18","1","506","2","Nice","1.5420753050653441818","1.623107085851377418","1.5825911954583609109"
"120219","10:45:19","30","targetcompatiblepracticeswitch","6","targetAleft","20","18","1","556","2","Nice","1.5420753050653441818","1.623107085851377418","1.5825911954583609109"
"120219","10:45:19","30","targetcompatiblepracticeswitch","6","targetBright","21","23","1","492","1","Competent","1.5420753050653441818","1.623107085851377418","1.5825911954583609109"
"120219","10:45:19","30","targetcompatiblepracticeswitch","6","targetBright","22","23","1","1130","3","Skillful","1.5420753050653441818","1.623107085851377418","1.5825911954583609109"
"120219","10:45:19","30","targetcompatiblepracticeswitch","6","targetAleft","23","18","1","466","1","Warm","1.5420753050653441818","1.623107085851377418","1.5825911954583609109"
"120219","10:45:19","30","targetcompatiblepracticeswitch","6","targetBright","24","23","1","578","2","Intelligent","1.5420753050653441818","1.623107085851377418","1.5825911954583609109"
"120219","10:45:19","30","targetcompatiblepracticeswitch","6","targetAleft","25","18","0","888","4","Caring","1.5420753050653441818","1.623107085851377418","1.5825911954583609109"
"120219","10:45:19","30","targetcompatiblepracticeswitch","6","targetAleft","26","18","1","798","3","Sociable","1.5420753050653441818","1.623107085851377418","1.5825911954583609109"
"120219","10:45:19","30","targetcompatiblepracticeswitch","6","targetAleft","27","18","1","837","2","Nice","1.5420753050653441818","1.623107085851377418","1.5825911954583609109"
"120219","10:45:19","30","targetcompatiblepracticeswitch","6","targetAleft","28","18","1","647","3","Sociable","1.5420753050653441818","1.623107085851377418","1.5825911954583609109"
"120219","10:45:19","30","targetcompatiblepracticeswitch","6","targetBright","29","23","1","540","4","Efficient","1.5420753050653441818","1.623107085851377418","1.5825911954583609109"
"120219","10:45:19","30","targetcompatiblepracticeswitch","6","targetAleft","30","18","1","618","4","Caring","1.5420753050653441818","1.623107085851377418","1.5825911954583609109"
"120219","10:45:19","30","targetcompatiblepracticeswitch","6","targetBright","31","23","1","458","1","Competent","1.5420753050653441818","1.623107085851377418","1.5825911954583609109"
"120219","10:45:19","30","targetcompatiblepracticeswitch","6","targetAleft","32","18","1","627","1","Warm","1.5420753050653441818","1.623107085851377418","1.5825911954583609109"
"120219","10:45:19","30","targetcompatiblepracticeswitch","6","targetBright","33","23","1","526","4","Efficient","1.5420753050653441818","1.623107085851377418","1.5825911954583609109"
"120219","10:45:19","30","targetcompatiblepracticeswitch","6","targetAleft","34","18","1","416","2","Nice","1.5420753050653441818","1.623107085851377418","1.5825911954583609109"
"120219","10:45:19","30","targetcompatiblepracticeswitch","6","targetBright","35","23","1","450","3","Skillful","1.5420753050653441818","1.623107085851377418","1.5825911954583609109"
"120219","10:45:19","30","targetcompatiblepracticeswitch","6","targetAleft","36","18","1","695","3","Sociable","1.5420753050653441818","1.623107085851377418","1.5825911954583609109"
"120219","10:45:19","30","targetcompatiblepracticeswitch","6","targetAleft","37","18","1","520","1","Warm","1.5420753050653441818","1.623107085851377418","1.5825911954583609109"
"120219","10:45:19","30","targetcompatiblepracticeswitch","6","targetBright","38","23","1","539","2","Intelligent","1.5420753050653441818","1.623107085851377418","1.5825911954583609109"
"120219","10:45:19","30","targetcompatiblepracticeswitch","6","targetAleft","39","18","1","932","4","Caring","1.5420753050653441818","1.623107085851377418","1.5825911954583609109"
"120219","10:45:19","30","targetcompatiblepracticeswitch","6","targetAleft","40","18","1","412","4","Caring","1.5420753050653441818","1.623107085851377418","1.5825911954583609109"
"120219","10:45:19","30","targetcompatiblepracticeswitch","6","targetBright","41","23","1","604","4","Efficient","1.5420753050653441818","1.623107085851377418","1.5825911954583609109"
"120219","10:45:19","30","compatibletest1","7","attributeA","2","18","1","1909","2","Good","-1.4209211670343617762","1.623107085851377418","0.1010929594085078209"
"120219","10:45:19","30","compatibletest1","7","targetAleft","3","18","1","2567","3","Sociable","-1.6126745715838790574","1.623107085851377418","0.0052162571337491803"
"120219","10:45:19","30","compatibletest1","7","attributeB","4","23","1","1125","3","Unpleasant","-1.3265226585567637674","1.623107085851377418","0.1482922136473068253"
"120219","10:45:19","30","compatibletest1","7","targetAleft","5","18","1","1440","2","Nice","-1.2282518074908501671","1.623107085851377418","0.1974276391802636255"
"120219","10:45:19","30","compatibletest1","7","attributeB","6","23","1","849","1","Negative","-0.9679514094878084451","1.623107085851377418","0.3275778381817844864"
"120219","10:45:19","30","compatibletest1","7","targetBright","7","23","1","1090","2","Intelligent","-0.8477480114718912718","1.623107085851377418","0.3876795371897430731"
"120219","10:45:19","30","compatibletest1","7","attributeB","8","23","1","1109","4","Awful","-0.7624190001039163889","1.623107085851377418","0.4303440428737305146"
"120219","10:45:19","30","compatibletest1","7","targetAleft","9","18","1","715","1","Warm","-0.5888816050559843029","1.623107085851377418","0.517112740397696502"
"120219","10:45:19","30","compatibletest1","7","attributeA","10","18","1","625","1","Positive","-0.4271017106649869222","1.623107085851377418","0.5980026875931951924"
"120219","10:45:19","30","compatibletest1","7","targetAleft","11","18","1","774","1","Warm","-0.3297987162334140576","1.623107085851377418","0.6466541848089817357"
"120219","10:45:19","30","compatibletest1","7","attributeA","12","18","1","739","4","Great","-0.2418659067938142837","1.623107085851377418","0.690620589528781581"
"120219","10:45:19","30","compatibletest1","7","targetAleft","13","18","1","734","2","Nice","-0.1667491072754608006","1.623107085851377418","0.7281789892879583226"
"120219","10:45:19","30","compatibletest1","7","attributeB","14","23","1","906","1","Negative","-0.1310284320138185854","1.623107085851377418","0.7460393269187793885"
"120219","10:45:19","30","compatibletest1","7","targetBright","15","23","1","879","1","Competent","-0.0955553104931853164","1.623107085851377418","0.7637758876790960993"
"120219","10:45:19","30","compatibletest1","7","attributeB","16","23","1","758","4","Awful","-0.0464660615566140633","1.623107085851377418","0.7883205121473816357"
"120219","10:45:19","30","compatibletest1","7","targetBright","17","23","1","1153","3","Skillful","-0.0569409410654424658","1.623107085851377418","0.783083072392967483"
"120219","10:45:19","30","compatibletest1","7","attributeA","18","18","1","732","2","Good","-0.0114427000274327645","1.623107085851377418","0.8058321929119722782"
"120219","10:45:19","30","compatibletest1","7","targetBright","19","23","1","689","2","Intelligent","0.0347552939607142578","1.623107085851377418","0.8289311899060458622"
"120219","10:45:19","30","compatibletest1","7","attributeA","20","18","1","914","3","Pleasant","0.0505212382042898797","1.623107085851377418","0.8368141620278336523"
"120219","10:45:19","30","compatibletest1","7","targetBright","21","23","1","525","1","Competent","0.1074535013721143739","1.623107085851377418","0.8652802936117458543"
"120219","10:45:19","30","compatibletest2","9","attributeA","1","18","1","1098","4","Great","0.1074535013721143739","-0.0623937166305087859","0.022529892370802794"
"120219","10:45:19","30","compatibletest2","9","targetBright","2","23","1","1088","3","Skillful","0.1074535013721143739","-0.0495930314705347319","0.028930234950789821"
"120219","10:45:19","30","compatibletest2","9","attributeB","3","23","1","1089","3","Unpleasant","0.1074535013721143739","-0.0465287447756506309","0.0304623782982318715"
"120219","10:45:19","30","compatibletest2","9","targetBright","4","23","1","550","4","Efficient","0.1074535013721143739","0.3192800455411231031","0.2133667734566187524"
"120219","10:45:19","30","compatibletest2","9","attributeA","5","18","1","532","1","Positive","0.1074535013721143739","0.5341070705354705739","0.3207802859537924878"
"120219","10:45:19","30","compatibletest2","9","targetBright","6","23","1","535","2","Intelligent","0.1074535013721143739","0.6682773376217114869","0.3878654194969129443"
"120219","10:45:19","30","compatibletest2","9","attributeA","7","18","1","594","3","Pleasant","0.1074535013721143739","0.7437126051834194174","0.4255830532777669095"
"120219","10:45:19","30","compatibletest2","9","targetAleft","8","18","1","660","4","Caring","0.1074535013721143739","0.7836484970345171108","0.4455509992033157562"
"120219","10:45:19","30","compatibletest2","9","attributeA","9","18","1","501","1","Positive","0.1074535013721143739","0.8499147598406122661","0.4786841306063633339"
"120219","10:45:19","30","compatibletest2","9","targetAleft","10","18","0","882","3","Sociable","0.1074535013721143739","0.8260086723248394325","0.4667310868484769171"
"120219","10:45:19","30","compatibletest2","9","attributeB","11","23","1","616","2","Bad","0.1074535013721143739","0.8582189490151695965","0.4828362251936419991"
"120219","10:45:19","30","compatibletest2","9","targetAleft","12","18","1","1342","4","Caring","0.1074535013721143739","0.7389014666347930582","0.4231774840034537299"
"120219","10:45:19","30","compatibletest2","9","attributeB","13","23","1","1016","3","Unpleasant","0.1074535013721143739","0.7033626492928718443","0.405408075332493123"
"120219","10:45:19","30","compatibletest2","9","targetAleft","14","18","1","1695","2","Nice","0.1074535013721143739","0.5293629907131557344","0.318408246042635068"
"120219","10:45:19","30","compatibletest2","9","attributeB","15","23","1","615","4","Awful","0.1074535013721143739","0.5729711321042255667","0.3402123167381699842"
"120219","10:45:19","30","compatibletest2","9","targetBright","16","23","1","774","4","Efficient","0.1074535013721143739","0.5895733426179805559","0.3485134219950474788"
"120219","10:45:19","30","compatibletest2","9","attributeB","17","23","0","1331","1","Negative","0.1074535013721143739","0.5182164877862768249","0.3128349945791956133"
"120219","10:45:19","30","compatibletest2","9","targetBright","18","23","1","830","1","Competent","0.1074535013721143739","0.5289412243935943669","0.3181973628828543843"
"120219","10:45:19","30","compatibletest2","9","attributeB","19","23","1","662","2","Bad","0.1074535013721143739","0.5593362289070220594","0.3333948651395682305"
"120219","10:45:19","30","compatibletest2","9","targetBright","20","23","1","1734","3","Skillful","0.1074535013721143739","0.4352665136543593105","0.2713600075132368561"
"120219","10:45:19","30","compatibletest2","9","attributeB","21","23","1","780","4","Awful","0.1074535013721143739","0.4534113069248927319","0.2804324041485035668"
"120219","10:45:19","30","compatibletest2","9","targetAleft","22","18","1","568","1","Warm","0.1074535013721143739","0.4915352774578849449","0.2994943894149996733"
"120219","10:45:19","30","compatibletest2","9","attributeA","23","18","1","457","4","Great","0.1074535013721143739","0.5356200276994620424","0.321536764535788222"
"120219","10:45:19","30","compatibletest2","9","targetBright","24","23","1","578","1","Competent","0.1074535013721143739","0.5660549025695296166","0.3367542019708220091"
"120219","10:45:19","30","compatibletest2","9","attributeB","25","23","1","575","3","Unpleasant","0.1074535013721143739","0.5943818242867703328","0.3509176628294423672"
"120219","10:45:19","30","compatibletest2","9","targetBright","26","23","1","474","3","Skillful","0.1074535013721143739","0.6276676171086199574","0.3675605592403671795"
"120219","10:45:19","30","compatibletest2","9","attributeB","27","23","1","698","1","Negative","0.1074535013721143739","0.6427480947007434553","0.3751007980364289285"
"120219","10:45:19","30","compatibletest2","9","targetBright","28","23","1","443","4","Efficient","0.1074535013721143739","0.673725789922715923","0.3905896456474151623"
"120219","10:45:19","30","compatibletest2","9","attributeA","29","18","0","753","2","Good","0.1074535013721143739","0.682619013930820695","0.3950362576514675483"
"120219","10:45:19","30","compatibletest2","9","targetAleft","30","18","1","1455","3","Sociable","0.1074535013721143739","0.6249503112000149851","0.3662019062860646934"
"120219","10:45:19","30","compatibletest2","9","attributeB","31","23","1","552","2","Bad","0.1074535013721143739","0.6474768330692467488","0.3774651672206805753"
"120219","10:45:19","30","compatibletest2","9","targetAleft","32","18","1","1098","2","Nice","0.1074535013721143739","0.6294619695621540556","0.3684577354671342286"
"120219","10:45:19","30","compatibletest2","9","attributeA","33","18","1","678","3","Pleasant","0.1074535013721143739","0.6434942445573992309","0.3754738729647568163"
"120219","10:45:19","30","compatibletest2","9","targetAleft","34","18","1","644","3","Sociable","0.1074535013721143739","0.6588996445075635533","0.3831765729398389775"
"120219","10:45:19","30","compatibletest2","9","attributeA","35","18","1","444","2","Good","0.1074535013721143739","0.6833837515919767291","0.3954186264820455654"
"120219","10:45:19","30","compatibletest2","9","targetBright","36","23","0","739","2","Intelligent","0.1074535013721143739","0.6917741825381223952","0.3996138419551183985"
"120219","10:45:19","30","compatibletest2","9","attributeA","37","18","0","1626","1","Positive","0.1074535013721143739","0.6261636750446903932","0.3668085882084023974"
"120219","10:45:19","30","compatibletest2","9","targetAleft","38","18","1","967","1","Warm","0.1074535013721143739","0.6210066499256300387","0.3642300756488722202"
"120219","10:45:19","30","compatibletest2","9","attributeA","39","18","1","563","4","Great","0.1074535013721143739","0.6388070112037335102","0.3731302562879239559"
"120219","10:45:19","30","compatibletest2","9","targetAleft","40","18","1","558","4","Caring","0.1074535013721143739","0.6560242679352406014","0.3817388846536775016"
"120219","07:47:56","34","targetincompatiblepractice","1","targetBleft","2","18","1","1141","1","Competent","","","0"
"120219","07:47:56","34","targetincompatiblepractice","1","targetAright","3","23","1","642","2","Nice","","","0"
"120219","07:47:56","34","targetincompatiblepractice","1","targetAright","4","23","1","826","3","Sociable","","","0"
"120219","07:47:56","34","targetincompatiblepractice","1","targetBleft","5","18","0","802","2","Intelligent","","","0"
"120219","07:47:56","34","targetincompatiblepractice","1","targetAright","6","23","1","613","4","Caring","","","0"
"120219","07:47:56","34","targetincompatiblepractice","1","targetBleft","7","18","1","722","4","Efficient","","","0"
"120219","07:47:56","34","targetincompatiblepractice","1","targetBleft","8","18","1","603","3","Skillful","","","0"
"120219","07:47:56","34","targetincompatiblepractice","1","targetAright","9","23","1","627","1","Warm","","","0"
"120219","07:47:56","34","targetincompatiblepractice","1","targetBleft","10","18","1","606","3","Skillful","","","0"
"120219","07:47:56","34","targetincompatiblepractice","1","targetAright","11","23","1","1186","2","Nice","","","0"
"120219","07:47:56","34","targetincompatiblepractice","1","targetBleft","12","18","1","1018","2","Intelligent","","","0"
"120219","07:47:56","34","targetincompatiblepractice","1","targetAright","13","23","1","959","3","Sociable","","","0"
"120219","07:47:56","34","targetincompatiblepractice","1","targetBleft","14","18","1","746","4","Efficient","","","0"
"120219","07:47:56","34","targetincompatiblepractice","1","targetBleft","15","18","1","663","1","Competent","","","0"
"120219","07:47:56","34","targetincompatiblepractice","1","targetAright","16","23","1","546","1","Warm","","","0"
"120219","07:47:56","34","targetincompatiblepractice","1","targetAright","17","23","1","673","4","Caring","","","0"
"120219","07:47:56","34","targetincompatiblepractice","1","targetAright","18","23","1","835","3","Sociable","","","0"
"120219","07:47:56","34","targetincompatiblepractice","1","targetAright","19","23","1","585","4","Caring","","","0"
"120219","07:47:56","34","targetincompatiblepractice","1","targetBleft","20","18","1","668","3","Skillful","","","0"
"120219","07:47:56","34","targetincompatiblepractice","1","targetBleft","21","18","1","635","1","Competent","","","0"
"120219","07:47:56","34","attributepractice","2","attributeB","2","23","1","1212","2","Bad","","","0"
"120219","07:47:56","34","attributepractice","2","attributeA","3","18","1","891","3","Pleasant","","","0"
"120219","07:47:56","34","attributepractice","2","attributeB","4","23","1","770","3","Unpleasant","","","0"
"120219","07:47:56","34","attributepractice","2","attributeB","5","23","1","563","4","Awful","","","0"
"120219","07:47:56","34","attributepractice","2","attributeA","6","18","1","624","1","Positive","","","0"
"120219","07:47:56","34","attributepractice","2","attributeA","7","18","1","484","2","Good","","","0"
"120219","07:47:56","34","attributepractice","2","attributeB","8","23","1","763","1","Negative","","","0"
"120219","07:47:56","34","attributepractice","2","attributeA","9","18","1","571","4","Great","","","0"
"120219","07:47:56","34","attributepractice","2","attributeB","10","23","1","546","3","Unpleasant","","","0"
"120219","07:47:56","34","attributepractice","2","attributeB","11","23","1","558","1","Negative","","","0"
"120219","07:47:56","34","attributepractice","2","attributeA","12","18","1","466","2","Good","","","0"
"120219","07:47:56","34","attributepractice","2","attributeA","13","18","0","1416","3","Pleasant","","","0"
"120219","07:47:56","34","attributepractice","2","attributeB","14","23","1","740","4","Awful","","","0"
"120219","07:47:56","34","attributepractice","2","attributeB","15","23","1","521","2","Bad","","","0"
"120219","07:47:56","34","attributepractice","2","attributeB","16","23","1","381","2","Bad","","","0"
"120219","07:47:56","34","attributepractice","2","attributeA","17","18","1","659","1","Positive","","","0"
"120219","07:47:56","34","attributepractice","2","attributeA","18","18","1","593","4","Great","","","0"
"120219","07:47:56","34","attributepractice","2","attributeB","19","23","1","635","1","Negative","","","0"
"120219","07:47:56","34","attributepractice","2","attributeA","20","18","1","539","4","Great","","","0"
"120219","07:47:56","34","attributepractice","2","attributeA","21","18","1","570","2","Good","","","0"
"120219","07:47:56","34","incompatibletest1","3","attributeA","2","18","1","1131","1","Positive","","","0"
"120219","07:47:56","34","incompatibletest1","3","targetAright","3","23","1","762","1","Warm","1.3176221149529563359","","0.6588110574764781679"
"120219","07:47:56","34","incompatibletest1","3","attributeA","4","18","1","1172","3","Pleasant","1.5360085305327819682","","0.7680042652663909841"
"120219","07:47:56","34","incompatibletest1","3","targetAright","5","23","1","1812","2","Nice","1.4724277574009028147","","0.7362138787004514073"
"120219","07:47:56","34","incompatibletest1","3","attributeA","6","18","1","862","2","Good","1.5073435337962781677","","0.7536717668981390839"
"120219","07:47:56","34","incompatibletest1","3","targetBleft","7","18","1","748","2","Intelligent","1.5112317250343634267","","0.7556158625171817134"
"120219","07:47:56","34","incompatibletest1","3","attributeB","8","23","1","1006","3","Unpleasant","1.5625512244833594799","","0.78127561224167974"
"120219","07:47:56","34","incompatibletest1","3","targetBleft","9","18","1","772","4","Efficient","1.5720530634669518388","","0.7860265317334759194"
"120219","07:47:56","34","incompatibletest1","3","attributeB","10","23","1","802","4","Awful","1.5880459159781796785","","0.7940229579890898393"
"120219","07:47:56","34","incompatibletest1","3","targetAright","11","23","0","1261","2","Nice","1.6194363572611913948","","0.8097181786305956974"
"120219","07:47:56","34","incompatibletest1","3","attributeB","12","23","1","3421","1","Negative","1.2212342816060142159","","0.6106171408030071079"
"120219","07:47:56","34","incompatibletest1","3","targetAright","13","23","1","1543","1","Warm","1.2669041644581826578","","0.6334520822290913289"
"120219","07:47:56","34","incompatibletest1","3","attributeA","14","18","1","756","1","Positive","1.2633061348899279341","","0.6316530674449639671"
"120219","07:47:56","34","incompatibletest1","3","targetAright","15","23","0","1323","4","Caring","1.2967940061326941326","","0.6483970030663470663"
"120219","07:47:56","34","incompatibletest1","3","attributeB","16","23","1","875","3","Unpleasant","1.3037762561692833874","","0.6518881280846416937"
"120219","07:47:56","34","incompatibletest1","3","targetBleft","17","18","1","1511","2","Intelligent","1.3357752571917171913","","0.6678876285958585957"
"120219","07:47:56","34","incompatibletest1","3","attributeA","18","18","1","1572","3","Pleasant","1.3650661157234251775","","0.6825330578617125887"
"120219","07:47:56","34","incompatibletest1","3","targetBleft","19","18","1","792","3","Skillful","1.3627914615370195772","","0.6813957307685097886"
"120219","07:47:56","34","incompatibletest1","3","attributeB","20","23","1","587","2","Bad","1.3454332901304033587","","0.6727166450652016794"
"120219","07:47:56","34","incompatibletest1","3","targetBleft","21","18","1","799","1","Competent","1.3465865302341981646","","0.6732932651170990823"
"120219","07:47:56","34","incompatibletest2","5","attributeA","1","18","1","1024","4","Great","1.3465865302341981646","","0.6732932651170990823"
"120219","07:47:56","34","incompatibletest2","5","targetAright","2","23","1","1458","3","Sociable","1.3465865302341981646","1.3349346382460907101","1.3407605842401444374"
"120219","07:47:56","34","incompatibletest2","5","attributeB","3","23","1","669","4","Awful","1.3465865302341981646","1.3913831167240016118","1.3689848234790997772"
"120219","07:47:56","34","incompatibletest2","5","targetAright","4","23","1","1034","1","Warm","1.3465865302341981646","1.5276626933427410737","1.4371246117884695082"
"120219","07:47:56","34","incompatibletest2","5","attributeB","5","23","1","794","1","Negative","1.3465865302341981646","1.5730599198738079991","1.4598232250540030819"
"120219","07:47:56","34","incompatibletest2","5","targetAright","6","23","0","1464","2","Nice","1.3465865302341981646","1.59169134960253289","1.4691389399183654163"
"120219","07:47:56","34","incompatibletest2","5","attributeB","7","23","1","1447","4","Awful","1.3465865302341981646","1.6244303753838769122","1.4855084528090376494"
"120219","07:47:56","34","incompatibletest2","5","targetBleft","8","18","1","1291","4","Efficient","1.3465865302341981646","1.6656453342756269986","1.5061159322549126927"
"120219","07:47:56","34","incompatibletest2","5","attributeA","9","18","0","1731","3","Pleasant","1.3465865302341981646","1.6539538532926985059","1.5002701917634482243"
"120219","07:47:56","34","incompatibletest2","5","targetBleft","10","18","1","1846","4","Efficient","1.3465865302341981646","1.6437264918018381632","1.4951565110180182749"
"120219","07:47:56","34","incompatibletest2","5","attributeB","11","23","1","823","3","Unpleasant","1.3465865302341981646","1.6308887142705166262","1.4887376222523573954"
"120219","07:47:56","34","incompatibletest2","5","targetBleft","12","18","1","900","1","Competent","1.3465865302341981646","1.632522797704269113","1.4895546639692336388"
"120219","07:47:56","34","incompatibletest2","5","attributeA","13","18","1","879","4","Great","1.3465865302341981646","1.6335323127137348909","1.4900594214739664167"
"120219","07:47:56","34","incompatibletest2","5","targetAright","14","23","1","799","3","Sociable","1.3465865302341981646","1.6273663593563258978","1.4869764447952620312"
"120219","07:47:56","34","incompatibletest2","5","attributeB","15","23","1","1241","2","Bad","1.3465865302341981646","1.6487750468153985484","1.4976807885247982455"
"120219","07:47:56","34","incompatibletest2","5","targetBleft","16","18","1","645","3","Skillful","1.3465865302341981646","1.6255670759598839226","1.4860768030970410436"
"120219","07:47:56","34","incompatibletest2","5","attributeA","17","18","1","894","1","Positive","1.3465865302341981646","1.6316859525069500325","1.4891362413705739876"
"120219","07:47:56","34","incompatibletest2","5","targetBleft","18","18","1","1803","2","Intelligent","1.3465865302341981646","1.619427215320393687","1.4830068727772958148"
"120219","07:47:56","34","incompatibletest2","5","attributeA","19","18","1","788","2","Good","1.3465865302341981646","1.615398077022250467","1.4809923036282244269"
"120219","07:47:56","34","incompatibletest2","5","targetBleft","20","18","1","747","4","Efficient","1.3465865302341981646","1.6092130149559464858","1.4778997725950722142"
"120219","07:47:56","34","incompatibletest2","5","attributeB","21","23","1","596","2","Bad","1.3465865302341981646","1.5901644306366524706","1.4683754804354252066"
"120219","07:47:56","34","incompatibletest2","5","targetAright","22","23","1","723","4","Caring","1.3465865302341981646","1.5854955831429176083","1.4660410566885579975"
"120219","07:47:56","34","incompatibletest2","5","attributeB","23","23","1","887","1","Negative","1.3465865302341981646","1.5923627913027942338","1.4694746607684963102"
"120219","07:47:56","34","incompatibletest2","5","targetAright","24","23","1","1179","4","Caring","1.3465865302341981646","1.6065455444193423862","1.4765660373267701644"
"120219","07:47:56","34","incompatibletest2","5","attributeB","25","23","1","1296","3","Unpleasant","1.3465865302341981646","1.619110880473669356","1.4828487053539336493"
"120219","07:47:56","34","incompatibletest2","5","targetAright","26","23","1","907","3","Sociable","1.3465865302341981646","1.625176862321212834","1.4858816962777054993"
"120219","07:47:56","34","incompatibletest2","5","attributeA","27","18","0","1048","2","Good","1.3465865302341981646","1.6354492030858878149","1.4910178666600431008"
"120219","07:47:56","34","incompatibletest2","5","targetAright","28","23","0","2455","2","Nice","1.3465865302341981646","1.5535933752184767354","1.450089952726337561"
"120219","07:47:56","34","incompatibletest2","5","attributeB","29","23","1","3275","4","Awful","1.3465865302341981646","1.4105378068525127322","1.3785621685433553374"
"120219","07:47:56","34","incompatibletest2","5","targetBleft","30","18","1","765","1","Competent","1.3465865302341981646","1.4085091206060873503","1.3775478254201427575"
"120219","07:47:56","34","incompatibletest2","5","attributeA","31","18","1","2110","4","Great","1.3465865302341981646","1.4099711161490828815","1.378278823191640523"
"120219","07:47:56","34","incompatibletest2","5","targetAright","32","23","1","1066","1","Warm","1.3465865302341981646","1.4183713400078055145","1.3824789351210018395"
"120219","07:47:56","34","incompatibletest2","5","attributeB","33","23","1","644","2","Bad","1.3465865302341981646","1.4102732601081651165","1.3784298951711817516"
"120219","07:47:56","34","incompatibletest2","5","targetBleft","34","18","1","730","3","Skillful","1.3465865302341981646","1.4070498588844460031","1.3768181945593220838"
"120219","07:47:56","34","incompatibletest2","5","attributeA","35","18","1","2234","3","Pleasant","1.3465865302341981646","1.4034003904361682658","1.3749934603351832152"
"120219","07:47:56","34","incompatibletest2","5","targetBleft","36","18","0","1282","2","Intelligent","1.3465865302341981646","1.4147414725279836567","1.3806640013810909107"
"120219","07:47:56","34","incompatibletest2","5","attributeA","37","18","1","1195","1","Positive","1.3465865302341981646","1.4244654067158142308","1.3855259684750063087"
"120219","07:47:56","34","incompatibletest2","5","targetAright","38","23","1","619","3","Sociable","1.3465865302341981646","1.416085718340652555","1.3813361242874253598"
"120219","07:47:56","34","incompatibletest2","5","attributeA","39","18","1","864","2","Good","1.3465865302341981646","1.4178196328502343793","1.3822030815422161609"
"120219","07:47:56","34","incompatibletest2","5","targetBleft","40","18","1","821","1","Competent","1.3465865302341981646","1.4182888467104737273","1.382437688472335946"
"120219","07:47:56","34","targetcompatiblepracticeswitch","6","targetAleft","2","18","1","1972","2","Nice","1.3465865302341981646","1.4182888467104737273","1.382437688472335946"
"120219","07:47:56","34","targetcompatiblepracticeswitch","6","targetAleft","3","18","1","480","1","Warm","1.3465865302341981646","1.4182888467104737273","1.382437688472335946"
"120219","07:47:56","34","targetcompatiblepracticeswitch","6","targetBright","4","23","0","855","3","Skillful","1.3465865302341981646","1.4182888467104737273","1.382437688472335946"
"120219","07:47:56","34","targetcompatiblepracticeswitch","6","targetBright","5","23","1","566","4","Efficient","1.3465865302341981646","1.4182888467104737273","1.382437688472335946"
"120219","07:47:56","34","targetcompatiblepracticeswitch","6","targetAleft","6","18","1","1356","4","Caring","1.3465865302341981646","1.4182888467104737273","1.382437688472335946"
"120219","07:47:56","34","targetcompatiblepracticeswitch","6","targetAleft","7","18","1","616","3","Sociable","1.3465865302341981646","1.4182888467104737273","1.382437688472335946"
"120219","07:47:56","34","targetcompatiblepracticeswitch","6","targetBright","8","23","1","588","2","Intelligent","1.3465865302341981646","1.4182888467104737273","1.382437688472335946"
"120219","07:47:56","34","targetcompatiblepracticeswitch","6","targetAleft","9","18","1","633","2","Nice","1.3465865302341981646","1.4182888467104737273","1.382437688472335946"
"120219","07:47:56","34","targetcompatiblepracticeswitch","6","targetBright","10","23","1","1342","3","Skillful","1.3465865302341981646","1.4182888467104737273","1.382437688472335946"
"120219","07:47:56","34","targetcompatiblepracticeswitch","6","targetAleft","11","18","1","442","1","Warm","1.3465865302341981646","1.4182888467104737273","1.382437688472335946"
"120219","07:47:56","34","targetcompatiblepracticeswitch","6","targetBright","12","23","1","823","1","Competent","1.3465865302341981646","1.4182888467104737273","1.382437688472335946"
"120219","07:47:56","34","targetcompatiblepracticeswitch","6","targetBright","13","23","1","1808","2","Intelligent","1.3465865302341981646","1.4182888467104737273","1.382437688472335946"
"120219","07:47:56","34","targetcompatiblepracticeswitch","6","targetBright","14","23","1","679","4","Efficient","1.3465865302341981646","1.4182888467104737273","1.382437688472335946"
"120219","07:47:56","34","targetcompatiblepracticeswitch","6","targetBright","15","23","1","623","3","Skillful","1.3465865302341981646","1.4182888467104737273","1.382437688472335946"
"120219","07:47:56","34","targetcompatiblepracticeswitch","6","targetBright","16","23","1","657","1","Competent","1.3465865302341981646","1.4182888467104737273","1.382437688472335946"
"120219","07:47:56","34","targetcompatiblepracticeswitch","6","targetAleft","17","18","1","633","4","Caring","1.3465865302341981646","1.4182888467104737273","1.382437688472335946"
"120219","07:47:56","34","targetcompatiblepracticeswitch","6","targetBright","18","23","0","886","2","Intelligent","1.3465865302341981646","1.4182888467104737273","1.382437688472335946"
"120219","07:47:56","34","targetcompatiblepracticeswitch","6","targetAleft","19","18","1","725","1","Warm","1.3465865302341981646","1.4182888467104737273","1.382437688472335946"
"120219","07:47:56","34","targetcompatiblepracticeswitch","6","targetBright","20","23","1","672","4","Efficient","1.3465865302341981646","1.4182888467104737273","1.382437688472335946"
"120219","07:47:56","34","targetcompatiblepracticeswitch","6","targetBright","21","23","1","1064","2","Intelligent","1.3465865302341981646","1.4182888467104737273","1.382437688472335946"
"120219","07:47:56","34","targetcompatiblepracticeswitch","6","targetBright","22","23","1","1367","3","Skillful","1.3465865302341981646","1.4182888467104737273","1.382437688472335946"
"120219","07:47:56","34","targetcompatiblepracticeswitch","6","targetAleft","23","18","1","655","2","Nice","1.3465865302341981646","1.4182888467104737273","1.382437688472335946"
"120219","07:47:56","34","targetcompatiblepracticeswitch","6","targetAleft","24","18","1","635","3","Sociable","1.3465865302341981646","1.4182888467104737273","1.382437688472335946"
"120219","07:47:56","34","targetcompatiblepracticeswitch","6","targetAleft","25","18","1","550","4","Caring","1.3465865302341981646","1.4182888467104737273","1.382437688472335946"
"120219","07:47:56","34","targetcompatiblepracticeswitch","6","targetAleft","26","18","1","658","2","Nice","1.3465865302341981646","1.4182888467104737273","1.382437688472335946"
"120219","07:47:56","34","targetcompatiblepracticeswitch","6","targetAleft","27","18","1","647","3","Sociable","1.3465865302341981646","1.4182888467104737273","1.382437688472335946"
"120219","07:47:56","34","targetcompatiblepracticeswitch","6","targetBright","28","23","1","663","1","Competent","1.3465865302341981646","1.4182888467104737273","1.382437688472335946"
"120219","07:47:56","34","targetcompatiblepracticeswitch","6","targetAleft","29","18","1","537","1","Warm","1.3465865302341981646","1.4182888467104737273","1.382437688472335946"
"120219","07:47:56","34","targetcompatiblepracticeswitch","6","targetBright","30","23","1","2582","4","Efficient","1.3465865302341981646","1.4182888467104737273","1.382437688472335946"
"120219","07:47:56","34","targetcompatiblepracticeswitch","6","targetAleft","31","18","1","2961","4","Caring","1.3465865302341981646","1.4182888467104737273","1.382437688472335946"
"120219","07:47:56","34","targetcompatiblepracticeswitch","6","targetAleft","32","18","1","2043","3","Sociable","1.3465865302341981646","1.4182888467104737273","1.382437688472335946"
"120219","07:47:56","34","targetcompatiblepracticeswitch","6","targetAleft","33","18","1","475","1","Warm","1.3465865302341981646","1.4182888467104737273","1.382437688472335946"
"120219","07:47:56","34","targetcompatiblepracticeswitch","6","targetBright","34","23","1","645","3","Skillful","1.3465865302341981646","1.4182888467104737273","1.382437688472335946"
"120219","07:47:56","34","targetcompatiblepracticeswitch","6","targetBright","35","23","1","706","4","Efficient","1.3465865302341981646","1.4182888467104737273","1.382437688472335946"
"120219","07:47:56","34","targetcompatiblepracticeswitch","6","targetAleft","36","18","1","460","2","Nice","1.3465865302341981646","1.4182888467104737273","1.382437688472335946"
"120219","07:47:56","34","targetcompatiblepracticeswitch","6","targetAleft","37","18","1","698","4","Caring","1.3465865302341981646","1.4182888467104737273","1.382437688472335946"
"120219","07:47:56","34","targetcompatiblepracticeswitch","6","targetBright","38","23","1","624","2","Intelligent","1.3465865302341981646","1.4182888467104737273","1.382437688472335946"
"120219","07:47:56","34","targetcompatiblepracticeswitch","6","targetBright","39","23","1","676","1","Competent","1.3465865302341981646","1.4182888467104737273","1.382437688472335946"
"120219","07:47:56","34","targetcompatiblepracticeswitch","6","targetAleft","40","18","0","807","1","Warm","1.3465865302341981646","1.4182888467104737273","1.382437688472335946"
"120219","07:47:56","34","targetcompatiblepracticeswitch","6","targetBright","41","23","1","903","1","Competent","1.3465865302341981646","1.4182888467104737273","1.382437688472335946"
"120219","07:47:56","34","compatibletest1","7","attributeA","2","18","1","1172","1","Positive","0.0054459481855663999","1.4182888467104737273","0.7118673974480200783"
"120219","07:47:56","34","compatibletest1","7","targetAleft","3","18","1","1436","4","Caring","-0.2125458641506582924","1.4182888467104737273","0.6028714912799076897"
"120219","07:47:56","34","compatibletest1","7","attributeA","4","18","1","718","4","Great","0.1115825823438169467","1.4182888467104737273","0.7649357145271453717"
"120219","07:47:56","34","compatibletest1","7","targetBright","5","23","1","696","3","Skillful","0.2856409610484099693","1.4182888467104737273","0.8519649038794419038"
"120219","07:47:56","34","compatibletest1","7","attributeB","6","23","1","953","1","Negative","0.3092070560292974335","1.4182888467104737273","0.8637479513698855804"
"120219","07:47:56","34","compatibletest1","7","targetAleft","7","18","1","982","3","Sociable","0.3191130250597766782","1.4182888467104737273","0.8687009358851252028"
"120219","07:47:56","34","compatibletest1","7","attributeB","8","23","1","1022","3","Unpleasant","0.3180246517846140875","1.4182888467104737273","0.8681567492475439352"
"120219","07:47:56","34","compatibletest1","7","targetBright","9","23","1","868","4","Efficient","0.3519962384962415092","1.4182888467104737273","0.8851425426033576738"
"120219","07:47:56","34","compatibletest1","7","attributeA","10","18","0","1004","3","Pleasant","0.3536608065527734324","1.4182888467104737273","0.8859748266316236354"
"120219","07:47:56","34","compatibletest1","7","targetBright","11","23","1","1218","2","Intelligent","0.3160191827028194789","1.4182888467104737273","0.8671540147066465476"
"120219","07:47:56","34","compatibletest1","7","attributeB","12","23","1","817","4","Awful","0.3525009286204905945","1.4182888467104737273","0.8853948876654821332"
"120219","07:47:56","34","compatibletest1","7","targetBright","13","23","1","933","1","Competent","0.3668671339346514237","1.4182888467104737273","0.8925779903225625755"
"120219","07:47:56","34","compatibletest1","7","attributeA","14","18","0","1070","3","Pleasant","0.3600232237543108949","1.4182888467104737273","0.8891560352323922833"
"120219","07:47:56","34","compatibletest1","7","targetAleft","15","18","1","1039","2","Nice","0.3588534463243852612","1.4182888467104737273","0.888571146517429522"
"120219","07:47:56","34","compatibletest1","7","attributeB","16","23","1","1292","1","Negative","0.3236643225284148162","1.4182888467104737273","0.8709765846194442718"
"120219","07:47:56","34","compatibletest1","7","targetAleft","17","18","1","587","1","Warm","0.3771727501618923339","1.4182888467104737273","0.8977307984361830862"
"120219","07:47:56","34","compatibletest1","7","attributeB","18","23","1","747","4","Awful","0.4087536313914510999","1.4182888467104737273","0.9135212390509623859"
"120219","07:47:56","34","compatibletest1","7","targetBright","19","23","1","947","4","Efficient","0.4170544957206499537","1.4182888467104737273","0.9176716712155618128"
"120219","07:47:56","34","compatibletest1","7","attributeA","20","18","1","1396","1","Positive","0.3741757909397690485","1.4182888467104737273","0.8962323188251213324"
"120219","07:47:56","34","compatibletest1","7","targetAleft","21","18","1","725","3","Sociable","0.4044294359698663022","1.4182888467104737273","0.9113591413401700425"
"120219","07:47:56","34","compatibletest2","9","attributeA","1","18","1","757","2","Good","0.4044294359698663022","0.6876666910389711562","0.5460480635044187014"
"120219","07:47:56","34","compatibletest2","9","targetBright","2","23","1","694","3","Skillful","0.4044294359698663022","0.7404625695870863389","0.5724460027784763483"
"120219","07:47:56","34","compatibletest2","9","attributeB","3","23","1","588","2","Bad","0.4044294359698663022","0.8118683629405070157","0.6081488994551866867"
"120219","07:47:56","34","compatibletest2","9","targetBright","4","23","1","964","2","Intelligent","0.4044294359698663022","0.7172758334770138466","0.5608526347234400466"
"120219","07:47:56","34","compatibletest2","9","attributeB","5","23","1","570","3","Unpleasant","0.4044294359698663022","0.7764327419243647332","0.59043108894711549"
"120219","07:47:56","34","compatibletest2","9","targetBright","6","23","1","1284","1","Competent","0.4044294359698663022","0.6351062873924168128","0.5197678616811415298"
"120219","07:47:56","34","compatibletest2","9","attributeA","7","18","1","553","4","Great","0.4044294359698663022","0.6968417638081224608","0.5506355998889943537"
"120219","07:47:56","34","compatibletest2","9","targetBright","8","23","1","668","3","Skillful","0.4044294359698663022","0.7231624662538848058","0.5637959511118755263"
"120219","07:47:56","34","compatibletest2","9","attributeB","9","23","1","1346","3","Unpleasant","0.4044294359698663022","0.6212625994546955299","0.5128460177122808883"
"120219","07:47:56","34","compatibletest2","9","targetAleft","10","18","1","612","4","Caring","0.4044294359698663022","0.6602503908722293646","0.5323399134210478056"
"120219","07:47:56","34","compatibletest2","9","attributeA","11","18","1","864","1","Positive","0.4044294359698663022","0.6573698829023985057","0.5308996594361323762"
"120219","07:47:56","34","compatibletest2","9","targetAleft","12","18","1","719","2","Nice","0.4044294359698663022","0.6750953537730509657","0.5397623948714586062"
"120219","07:47:56","34","compatibletest2","9","attributeB","13","23","1","591","1","Negative","0.4044294359698663022","0.7058981618142438075","0.5551637988920550271"
"120219","07:47:56","34","compatibletest2","9","targetAleft","14","18","1","727","3","Sociable","0.4044294359698663022","0.7183629356392821075","0.5613961858045741771"
"120219","07:47:56","34","compatibletest2","9","attributeA","15","18","1","837","2","Good","0.4044294359698663022","0.7182138676224749663","0.561321651796170662"
"120219","07:47:56","34","compatibletest2","9","targetBright","16","23","1","672","2","Intelligent","0.4044294359698663022","0.7350256848630911666","0.5697275604164787621"
"120219","07:47:56","34","compatibletest2","9","attributeB","17","23","1","582","4","Awful","0.4044294359698663022","0.7583322195244203145","0.5813808277471432806"
"120219","07:47:56","34","compatibletest2","9","targetBright","18","23","1","1375","4","Efficient","0.4044294359698663022","0.7014887798458587786","0.5529591079078625127"
"120219","07:47:56","34","compatibletest2","9","attributeB","19","23","1","521","2","Bad","0.4044294359698663022","0.7292634903256759449","0.5668464631477710958"
"120219","07:47:56","34","compatibletest2","9","targetAleft","20","18","1","578","1","Warm","0.4044294359698663022","0.7505776272306785568","0.5775035316002724572"
"120219","07:47:56","34","compatibletest2","9","attributeA","21","18","1","652","4","Great","0.4044294359698663022","0.7651390737892350691","0.5847842548795506579"
"120219","07:47:56","34","compatibletest2","9","targetBright","22","23","1","1962","1","Competent","0.4044294359698663022","0.6535578657856884188","0.5289936508777773883"
"120219","07:47:56","34","compatibletest2","9","attributeB","23","23","1","821","2","Bad","0.4044294359698663022","0.6584952294364542214","0.531462332703160234"
"120219","07:47:56","34","compatibletest2","9","targetBright","24","23","1","2509","4","Efficient","0.4044294359698663022","0.5025908118149358117","0.4535101238924010847"
"120219","07:47:56","34","compatibletest2","9","attributeB","25","23","1","1156","4","Awful","0.4044294359698663022","0.4877253435186827968","0.4460773897442745772"
"120219","07:47:56","34","compatibletest2","9","targetAleft","26","18","1","2853","4","Caring","0.4044294359698663022","0.330138953647861666","0.3672841948088639841"
"120219","07:47:56","34","compatibletest2","9","attributeB","27","23","1","581","3","Unpleasant","0.4044294359698663022","0.3557373796829377821","0.3800834078264020421"
"120219","07:47:56","34","compatibletest2","9","targetAleft","28","18","1","1172","2","Nice","0.4044294359698663022","0.3457586904665281291","0.3750940632181972156"
"120219","07:47:56","34","compatibletest2","9","attributeB","29","23","1","808","1","Negative","0.4044294359698663022","0.3574438075406863313","0.3809366217552763167"
"120219","07:47:56","34","compatibletest2","9","targetAleft","30","18","1","1720","4","Caring","0.4044294359698663022","0.3139832891461826758","0.3592063625580245168"
"120219","07:47:56","34","compatibletest2","9","attributeA","31","18","1","846","3","Pleasant","0.4044294359698663022","0.3239280323324229549","0.3641787341511446563"
"120219","07:47:56","34","compatibletest2","9","targetBright","32","23","1","808","3","Skillful","0.4044294359698663022","0.3353688036119429894","0.369899119790904618"
"120219","07:47:56","34","compatibletest2","9","attributeA","33","18","1","700","3","Pleasant","0.4044294359698663022","0.3514946095302158291","0.3779620227500410934"
"120219","07:47:56","34","compatibletest2","9","targetBright","34","23","0","1121","2","Intelligent","0.4044294359698663022","0.3462717589915544902","0.375350597480710424"
"120219","07:47:56","34","compatibletest2","9","attributeA","35","18","1","752","2","Good","0.4044294359698663022","0.3591618254026413548","0.3817956306862538285"
"120219","07:47:56","34","compatibletest2","9","targetAleft","36","18","1","874","2","Nice","0.4044294359698663022","0.3660173232047898573","0.3852233795873281075"
"120219","07:47:56","34","compatibletest2","9","attributeA","37","18","1","802","1","Positive","0.4044294359698663022","0.3758579934746912876","0.3901437147222788226"
"120219","07:47:56","34","compatibletest2","9","targetAleft","38","18","1","670","1","Warm","0.4044294359698663022","0.3908524177494439589","0.3976409268596551305"
"120219","07:47:56","34","compatibletest2","9","attributeA","39","18","1","575","4","Great","0.4044294359698663022","0.4088997039684180157","0.4066645699691421312"
"120219","07:47:56","34","compatibletest2","9","targetAleft","40","18","1","877","3","Sociable","0.4044294359698663022","0.4143223370219998314","0.409375886495933039"
"120219","15:49:24","22","targetincompatiblepractice","1","targetAright","2","23","1","1259","2","Nice","","","0"
"120219","15:49:24","22","targetincompatiblepractice","1","targetAright","3","23","1","602","3","Sociable","","","0"
"120219","15:49:24","22","targetincompatiblepractice","1","targetAright","4","23","1","505","1","Warm","","","0"
"120219","15:49:24","22","targetincompatiblepractice","1","targetBleft","5","18","1","566","1","Competent","","","0"
"120219","15:49:24","22","targetincompatiblepractice","1","targetBleft","6","18","1","420","4","Efficient","","","0"
"120219","15:49:24","22","targetincompatiblepractice","1","targetAright","7","23","1","483","4","Caring","","","0"
"120219","15:49:24","22","targetincompatiblepractice","1","targetAright","8","23","1","709","1","Warm","","","0"
"120219","15:49:24","22","targetincompatiblepractice","1","targetBleft","9","18","1","557","2","Intelligent","","","0"
"120219","15:49:24","22","targetincompatiblepractice","1","targetBleft","10","18","1","505","3","Skillful","","","0"
"120219","15:49:24","22","targetincompatiblepractice","1","targetAright","11","23","1","496","4","Caring","","","0"
"120219","15:49:24","22","targetincompatiblepractice","1","targetBleft","12","18","1","577","2","Intelligent","","","0"
"120219","15:49:24","22","targetincompatiblepractice","1","targetBleft","13","18","1","614","1","Competent","","","0"
"120219","15:49:24","22","targetincompatiblepractice","1","targetAright","14","23","1","544","3","Sociable","","","0"
"120219","15:49:24","22","targetincompatiblepractice","1","targetBleft","15","18","1","562","4","Efficient","","","0"
"120219","15:49:24","22","targetincompatiblepractice","1","targetBleft","16","18","1","563","3","Skillful","","","0"
"120219","15:49:24","22","targetincompatiblepractice","1","targetAright","17","23","1","521","2","Nice","","","0"
"120219","15:49:24","22","targetincompatiblepractice","1","targetBleft","18","18","1","560","4","Efficient","","","0"
"120219","15:49:24","22","targetincompatiblepractice","1","targetAright","19","23","1","675","3","Sociable","","","0"
"120219","15:49:24","22","targetincompatiblepractice","1","targetAright","20","23","1","562","1","Warm","","","0"
"120219","15:49:24","22","targetincompatiblepractice","1","targetBleft","21","18","1","576","1","Competent","","","0"
"120219","15:49:24","22","attributepractice","2","attributeB","2","23","1","921","2","Bad","","","0"
"120219","15:49:24","22","attributepractice","2","attributeA","3","18","1","943","4","Great","","","0"
"120219","15:49:24","22","attributepractice","2","attributeB","4","23","1","640","1","Negative","","","0"
"120219","15:49:24","22","attributepractice","2","attributeB","5","23","1","655","3","Unpleasant","","","0"
"120219","15:49:24","22","attributepractice","2","attributeB","6","23","1","657","4","Awful","","","0"
"120219","15:49:24","22","attributepractice","2","attributeA","7","18","1","806","1","Positive","","","0"
"120219","15:49:24","22","attributepractice","2","attributeA","8","18","1","639","3","Pleasant","","","0"
"120219","15:49:24","22","attributepractice","2","attributeB","9","23","1","584","4","Awful","","","0"
"120219","15:49:24","22","attributepractice","2","attributeA","10","18","1","784","2","Good","","","0"
"120219","15:49:24","22","attributepractice","2","attributeA","11","18","1","559","1","Positive","","","0"
"120219","15:49:24","22","attributepractice","2","attributeA","12","18","1","506","4","Great","","","0"
"120219","15:49:24","22","attributepractice","2","attributeA","13","18","1","544","2","Good","","","0"
"120219","15:49:24","22","attributepractice","2","attributeA","14","18","1","729","3","Pleasant","","","0"
"120219","15:49:24","22","attributepractice","2","attributeA","15","18","1","524","2","Good","","","0"
"120219","15:49:24","22","attributepractice","2","attributeB","16","23","1","634","1","Negative","","","0"
"120219","15:49:24","22","attributepractice","2","attributeB","17","23","1","590","3","Unpleasant","","","0"
"120219","15:49:24","22","attributepractice","2","attributeB","18","23","1","482","2","Bad","","","0"
"120219","15:49:24","22","attributepractice","2","attributeA","19","18","1","549","1","Positive","","","0"
"120219","15:49:24","22","attributepractice","2","attributeB","20","23","1","573","4","Awful","","","0"
"120219","15:49:24","22","attributepractice","2","attributeB","21","23","1","488","2","Bad","","","0"
"120219","15:49:24","22","incompatibletest1","3","attributeB","2","23","1","777","3","Unpleasant","","","0"
"120219","15:49:24","22","incompatibletest1","3","targetBleft","3","18","1","980","2","Intelligent","1.3779046633228879681","","0.6889523316614439841"
"120219","15:49:24","22","incompatibletest1","3","attributeB","4","23","1","809","1","Negative","1.5986547579393342033","","0.7993273789696671017"
"120219","15:49:24","22","incompatibletest1","3","targetAright","5","23","1","912","4","Caring","1.7027612162824039554","","0.8513806081412019777"
"120219","15:49:24","22","incompatibletest1","3","attributeB","6","23","1","733","4","Awful","1.7487441533425815976","","0.8743720766712907988"
"120219","15:49:24","22","incompatibletest1","3","targetAright","7","23","1","1120","2","Nice","1.7495053701307916594","","0.8747526850653958297"
"120219","15:49:24","22","incompatibletest1","3","attributeA","8","18","0","1449","3","Pleasant","1.670754570815729867","","0.8353772854078649335"
"120219","15:49:24","22","incompatibletest1","3","targetBleft","9","18","1","679","3","Skillful","1.6681705668893249683","","0.8340852834446624842"
"120219","15:49:24","22","incompatibletest1","3","attributeB","10","23","1","621","3","Unpleasant","1.6572345311588057015","","0.8286172655794028508"
