"date","time","subject","blockcode","blocknum","trialcode","trialnum","response","correct","latency","stimulusnumber1","stimulusitem1","expressions.da","expressions.db","expressions.d"
"120219","16:14:56","1","compatibletest2","5","attributeB","1","Ctrl+'B'","1","416","3","Unpleasant","","","0"
"120219","16:14:56","1","incompatibletest2","9","attributeB","1","Ctrl+'B'","1","393","1","Negative","","-1.4142135623730951455","-0.7071067811865475727"
"120219","15:33:25","5","targetcompatiblepractice","1","targetBright","2","23","0","524","2","Intelligent","","","0"
"120219","15:33:25","5","targetcompatiblepractice","1","targetAleft","3","18","0","116","2","Nice","","","0"
"120219","15:33:25","5","targetcompatiblepractice","1","targetAleft","4","18","0","164","3","Sociable","","","0"
"120219","15:33:25","5","targetcompatiblepractice","1","targetBright","5","23","1","67","1","Competent","","","0"
"120219","15:33:25","5","targetcompatiblepractice","1","targetAleft","6","18","0","198","4","Caring","","","0"
"120219","15:33:25","5","targetcompatiblepractice","1","targetAleft","7","18","0","107","1","Warm","","","0"
"120219","15:33:25","5","targetcompatiblepractice","1","targetAleft","8","18","0","107","1","Warm","","","0"
"120219","15:33:25","5","targetcompatiblepractice","1","targetBright","9","23","1","92","3","Skillful","","","0"
"120219","15:33:25","5","targetcompatiblepractice","1","targetBright","10","23","1","110","4","Efficient","","","0"
"120219","15:33:25","5","targetcompatiblepractice","1","targetBright","11","23","1","104","3","Skillful","","","0"
"120219","15:33:25","5","targetcompatiblepractice","1","targetAleft","12","18","1","113","3","Sociable","","","0"
"120219","15:33:25","5","targetcompatiblepractice","1","targetBright","13","23","0","114","1","Competent","","","0"
"120219","15:33:25","5","targetcompatiblepractice","1","targetAleft","14","18","0","107","2","Nice","","","0"
"120219","15:33:25","5","targetcompatiblepractice","1","targetAleft","15","18","0","100","4","Caring","","","0"
"120219","15:33:25","5","targetcompatiblepractice","1","targetAleft","16","18","0","93","3","Sociable","","","0"
"120219","15:33:25","5","targetcompatiblepractice","1","targetAleft","17","18","0","110","4","Caring","","","0"
"120219","15:33:25","5","targetcompatiblepractice","1","targetBright","18","23","0","62","2","Intelligent","","","0"
"120219","15:33:25","5","targetcompatiblepractice","1","targetBright","19","23","1","73","4","Efficient","","","0"
"120219","15:33:25","5","targetcompatiblepractice","1","targetBright","20","23","1","124","4","Efficient","","","0"
"120219","15:33:25","5","targetcompatiblepractice","1","targetBright","21","23","0","220","3","Skillful","","","0"
"120219","15:33:25","5","attributepractice","2","attributeB","2","23","0","274","3","Unpleasant","","","0"
"120219","15:33:25","5","attributepractice","2","attributeA","3","18","1","60","1","Positive","","","0"
"120219","15:33:25","5","attributepractice","2","attributeA","4","18","0","240","3","Pleasant","","","0"
"120219","15:33:25","5","attributepractice","2","attributeB","5","23","1","131","4","Awful","","","0"
"120219","15:33:25","5","attributepractice","2","attributeA","6","18","1","36","4","Great","","","0"
"120219","15:33:25","5","attributepractice","2","attributeA","7","18","0","104","2","Good","","","0"
"120219","15:33:25","5","attributepractice","2","attributeB","8","23","0","64","2","Bad","","","0"
"120219","15:33:25","5","attributepractice","2","attributeB","9","23","1","83","1","Negative","","","0"
"120219","15:33:25","5","attributepractice","2","attributeB","10","23","0","133","2","Bad","","","0"
"120219","15:33:25","5","attributepractice","2","attributeB","11","23","0","85","1","Negative","","","0"
"120219","15:33:25","5","attributepractice","2","attributeB","12","23","1","62","3","Unpleasant","","","0"
"120219","15:33:25","5","attributepractice","2","attributeA","13","18","1","97","2","Good","","","0"
"120219","15:33:25","5","attributepractice","2","attributeB","14","23","0","155","4","Awful","","","0"
"120219","15:33:25","5","attributepractice","2","attributeA","15","18","1","105","3","Pleasant","","","0"
"120219","15:33:25","5","attributepractice","2","attributeA","16","18","0","147","4","Great","","","0"
"120219","15:33:25","5","attributepractice","2","attributeB","17","23","1","90","4","Awful","","","0"
"120219","15:33:25","5","attributepractice","2","attributeB","18","23","1","132","2","Bad","","","0"
"120219","15:33:25","5","attributepractice","2","attributeA","19","18","0","156","1","Positive","","","0"
"120219","15:33:25","5","attributepractice","2","attributeA","20","18","0","115","1","Positive","","","0"
"120219","15:33:25","5","attributepractice","2","attributeA","21","18","0","100","4","Great","","","0"
"120219","15:33:25","5","compatibletest1","3","attributeB","2","23","0","283","3","Unpleasant","","","0"
"120219","15:33:25","5","compatibletest1","3","targetBright","3","23","0","44","2","Intelligent","-0.7984961103956239592","","-0.3992480551978119796"
"120219","15:33:25","5","compatibletest1","3","attributeB","4","23","1","72","1","Negative","-0.8638481081373938775","","-0.4319240540686969387"
"120219","15:33:25","5","compatibletest1","3","targetBright","5","23","1","98","1","Competent","-0.957671232749865653","","-0.4788356163749328265"
"120219","15:33:25","5","compatibletest1","3","attributeA","6","18","1","4","2","Good","-0.8237860939025546392","","-0.4118930469512773196"
"120219","15:33:25","5","compatibletest1","3","targetAleft","7","18","1","145","2","Nice","-0.9393302136140735392","","-0.4696651068070367696"
"120219","15:33:25","5","compatibletest1","3","attributeA","8","18","1","9","3","Pleasant","-0.8543760399392856808","","-0.4271880199696428404"
"120219","15:33:25","5","compatibletest1","3","targetAleft","9","18","0","134","1","Warm","-0.9371348896586375599","","-0.4685674448293187799"
"120219","15:33:25","5","compatibletest1","3","attributeA","10","18","1","38","4","Great","-0.9169372210353970987","","-0.4584686105176985493"
"120219","15:33:25","5","compatibletest1","3","targetBright","11","23","1","2","3","Skillful","-0.8490679638052325284","","-0.4245339819026162642"
"120219","15:33:25","5","compatibletest1","3","attributeB","12","23","1","95","3","Unpleasant","-0.8946706719329681201","","-0.4473353359664840601"
"120219","15:33:25","5","compatibletest1","3","targetBright","13","23","1","105","4","Efficient","-0.9416853653609087438","","-0.4708426826804543719"
"120219","15:33:25","5","compatibletest1","3","attributeA","14","18","0","162","1","Positive","-0.9946959573718495706","","-0.4973479786859247853"
"120219","15:33:25","5","compatibletest1","3","targetAleft","15","18","1","25","4","Caring","-0.9662533202902539031","","-0.4831266601451269516"
"120219","15:33:25","5","compatibletest1","3","attributeB","16","23","1","230","1","Negative","-0.9904882131203971429","","-0.4952441065601985715"
"120219","15:33:25","5","compatibletest1","3","targetAleft","17","18","1","354","2","Nice","-0.949445410787513655","","-0.4747227053937568275"
"120219","15:33:25","5","compatibletest1","3","attributeB","18","23","1","338","2","Bad","-0.9592008524982835738","","-0.4796004262491417869"
"120219","15:33:25","5","compatibletest1","3","targetBright","19","23","0","1394","2","Intelligent","-0.5869179775313968506","","-0.2934589887656984253"
"120219","15:33:25","5","compatibletest1","3","attributeA","20","18","0","727","3","Pleasant","-0.6364991122502823284","","-0.3182495561251411642"
"120219","15:33:25","5","compatibletest1","3","targetAleft","21","18","1","207","1","Warm","-0.6498502111597901365","","-0.3249251055798950683"
"120219","15:33:25","5","compatibletest2","5","attributeA","1","18","1","155","2","Good","-0.6498502111597901365","","-0.3249251055798950683"
"120219","15:33:25","5","compatibletest2","5","targetBright","2","23","0","186","1","Competent","-0.6498502111597901365","-1.3914021704740868746","-1.0206261908169385055"
"120219","15:33:25","5","compatibletest2","5","attributeB","3","23","1","111","4","Awful","-0.6498502111597901365","-1.5117395052944668787","-1.0807948582271285076"
"120219","15:33:25","5","compatibletest2","5","targetAleft","4","18","1","17","3","Sociable","-0.6498502111597901365","-1.1727284599844860491","-0.9112893355721380928"
"120219","15:33:25","5","compatibletest2","5","attributeA","5","18","1","78","2","Good","-0.6498502111597901365","-1.2149248208200211785","-0.9323875159899056575"
"120219","15:33:25","5","compatibletest2","5","targetAleft","6","18","0","120","3","Sociable","-0.6498502111597901365","-1.3082257020907313017","-0.9790379566252607191"
"120219","15:33:25","5","compatibletest2","5","attributeA","7","18","1","105","4","Great","-0.6498502111597901365","-1.3699547646681289326","-1.0099024879139595345"
"120219","15:33:25","5","compatibletest2","5","targetAleft","8","18","0","154","1","Warm","-0.6498502111597901365","-1.4268295931146754985","-1.0383399021372328175"
"120219","15:33:25","5","compatibletest2","5","attributeA","9","18","0","73","3","Pleasant","-0.6498502111597901365","-1.4238633484960869779","-1.0368567798279384462"
"120219","15:33:25","5","compatibletest2","5","targetBright","10","23","0","66","2","Intelligent","-0.6498502111597901365","-1.4137427636464259262","-1.0317964874031080313"
"120219","15:33:25","5","compatibletest2","5","attributeA","11","18","1","29","1","Positive","-0.6498502111597901365","-1.3364414700867002228","-0.9931458406232451797"
"120219","15:33:25","5","compatibletest2","5","targetBright","12","23","0","113","3","Skillful","-0.6498502111597901365","-1.3769270946076175299","-1.0133886528837039442"
"120219","15:33:25","5","compatibletest2","5","attributeB","13","23","0","82","2","Bad","-0.6498502111597901365","-1.3950806579504633209","-1.0224654345551267287"
"120219","15:33:25","5","compatibletest2","5","targetAleft","14","18","1","36","4","Caring","-0.6498502111597901365","-1.3518322139996505893","-1.0008412125797203629"
"120219","15:33:25","5","compatibletest2","5","attributeA","15","18","1","104","1","Positive","-0.6498502111597901365","-1.382430523655764798","-1.0161403674077775783"
"120219","15:33:25","5","compatibletest2","5","targetAleft","16","18","1","89","2","Nice","-0.6498502111597901365","-1.4040252508783785945","-1.0269377310190843655"
"120219","15:33:25","5","compatibletest2","5","attributeB","17","23","0","115","3","Unpleasant","-0.6498502111597901365","-1.4311163262076100899","-1.0404832686837002242"
"120219","15:33:25","5","compatibletest2","5","targetAleft","18","18","1","84","3","Sociable","-0.6498502111597901365","-1.4462634511723913011","-1.0480568311660907188"
"120219","15:33:25","5","compatibletest2","5","attributeA","19","18","1","102","4","Great","-0.6498502111597901365","-1.4677304029082751669","-1.0587903070340325407"
"120219","15:33:25","5","compatibletest2","5","targetBright","20","23","1","111","4","Efficient","-0.6498502111597901365","-1.4887451825556161644","-1.0692976968577032615"
"120219","15:33:25","5","compatibletest2","5","attributeB","21","23","1","121","1","Negative","-0.6498502111597901365","-1.5077542681497781984","-1.0788022396547840565"
"120219","15:33:25","5","compatibletest2","5","targetBright","22","23","0","137","1","Competent","-0.6498502111597901365","-1.5215697025244752094","-1.085709956842132673"
"120219","15:33:25","5","compatibletest2","5","attributeB","23","23","0","104","4","Awful","-0.6498502111597901365","-1.5373510603452180678","-1.0936006357525041022"
"120219","15:33:25","5","compatibletest2","5","targetBright","24","23","0","113","4","Efficient","-0.6498502111597901365","-1.5530295795827788741","-1.1014398953712845053"
"120219","15:33:25","5","compatibletest2","5","attributeA","25","18","1","98","2","Good","-0.6498502111597901365","-1.565500273314759605","-1.1076752422372748708"
"120219","15:33:25","5","compatibletest2","5","targetBright","26","23","0","164","1","Competent","-0.6498502111597901365","-1.5618914840111879361","-1.1058708475854890363"
"120219","15:33:25","5","compatibletest2","5","attributeA","27","18","1","115","3","Pleasant","-0.6498502111597901365","-1.5751990732835670084","-1.1125246422216785724"
"120219","15:33:25","5","compatibletest2","5","targetBright","28","23","1","140","2","Intelligent","-0.6498502111597901365","-1.5843828235305925656","-1.117116517345191351"
"120219","15:33:25","5","compatibletest2","5","attributeA","29","18","0","156","4","Great","-0.6498502111597901365","-1.5875711172647615221","-1.1187106642122759403"
"120219","15:33:25","5","compatibletest2","5","targetBright","30","23","1","83","3","Skillful","-0.6498502111597901365","-1.5905767024724728476","-1.120213456816131492"
"120219","15:33:25","5","compatibletest2","5","attributeB","31","23","1","132","2","Bad","-0.6498502111597901365","-1.6006153029451242187","-1.1252327570524571776"
"120219","15:33:25","5","compatibletest2","5","targetAleft","32","18","0","244","2","Nice","-0.6498502111597901365","-1.5346634414816147096","-1.0922568263207024231"
"120219","15:33:25","5","compatibletest2","5","attributeB","33","23","0","184","4","Awful","-0.6498502111597901365","-1.5326775396490814884","-1.0912638754044357015"
"120219","15:33:25","5","compatibletest2","5","targetBright","34","23","0","93","3","Skillful","-0.6498502111597901365","-1.5375989152255598036","-1.0937245631926750811"
"120219","15:33:25","5","compatibletest2","5","attributeB","35","23","0","102","3","Unpleasant","-0.6498502111597901365","-1.544950207683342347","-1.0974002094215662417"
"120219","15:33:25","5","compatibletest2","5","targetAleft","36","18","0","119","1","Warm","-0.6498502111597901365","-1.5547569831701586462","-1.1023035971649743914"
"120219","15:33:25","5","compatibletest2","5","attributeB","37","23","1","95","1","Negative","-0.6498502111597901365","-1.5597648513398327808","-1.1048075312498113476"
"120219","15:33:25","5","compatibletest2","5","targetAleft","38","18","0","161","4","Caring","-0.6498502111597901365","-1.5650110191310038221","-1.1074306151453969793"
"120219","15:33:25","5","compatibletest2","5","attributeB","39","23","1","96","3","Unpleasant","-0.6498502111597901365","-1.5697179016624134285","-1.1097840564111018935"
"120219","15:33:25","5","compatibletest2","5","targetAleft","40","18","1","10","2","Nice","-0.6498502111597901365","-1.5242132562078676283","-1.0870317336838288824"
"120219","15:33:25","5","targetincompatiblepracticeswitch","6","targetBleft","2","18","1","115","1","Competent","-0.6498502111597901365","-1.5242132562078676283","-1.0870317336838288824"
"120219","15:33:25","5","targetincompatiblepracticeswitch","6","targetBleft","3","18","0","140","2","Intelligent","-0.6498502111597901365","-1.5242132562078676283","-1.0870317336838288824"
"120219","15:33:25","5","targetincompatiblepracticeswitch","6","targetBleft","4","18","1","99","4","Efficient","-0.6498502111597901365","-1.5242132562078676283","-1.0870317336838288824"
"120219","15:33:25","5","targetincompatiblepracticeswitch","6","targetBleft","5","18","1","109","1","Competent","-0.6498502111597901365","-1.5242132562078676283","-1.0870317336838288824"
"120219","15:33:25","5","targetincompatiblepracticeswitch","6","targetAright","6","23","0","158","3","Sociable","-0.6498502111597901365","-1.5242132562078676283","-1.0870317336838288824"
"120219","15:33:25","5","targetincompatiblepracticeswitch","6","targetBleft","7","18","0","85","3","Skillful","-0.6498502111597901365","-1.5242132562078676283","-1.0870317336838288824"
"120219","15:33:25","5","targetincompatiblepracticeswitch","6","targetAright","8","23","1","70","4","Caring","-0.6498502111597901365","-1.5242132562078676283","-1.0870317336838288824"
"120219","15:33:25","5","targetincompatiblepracticeswitch","6","targetAright","9","23","1","89","1","Warm","-0.6498502111597901365","-1.5242132562078676283","-1.0870317336838288824"
"120219","15:33:25","5","targetincompatiblepracticeswitch","6","targetBleft","10","18","0","139","4","Efficient","-0.6498502111597901365","-1.5242132562078676283","-1.0870317336838288824"
"120219","15:33:25","5","targetincompatiblepracticeswitch","6","targetAright","11","23","1","42","1","Warm","-0.6498502111597901365","-1.5242132562078676283","-1.0870317336838288824"
"120219","15:33:25","5","targetincompatiblepracticeswitch","6","targetAright","12","23","1","102","4","Caring","-0.6498502111597901365","-1.5242132562078676283","-1.0870317336838288824"
"120219","15:33:25","5","targetincompatiblepracticeswitch","6","targetBleft","13","18","0","231","2","Intelligent","-0.6498502111597901365","-1.5242132562078676283","-1.0870317336838288824"
"120219","15:33:25","5","targetincompatiblepracticeswitch","6","targetBleft","14","18","1","115","4","Efficient","-0.6498502111597901365","-1.5242132562078676283","-1.0870317336838288824"
"120219","15:33:25","5","targetincompatiblepracticeswitch","6","targetBleft","15","18","0","100","3","Skillful","-0.6498502111597901365","-1.5242132562078676283","-1.0870317336838288824"
"120219","15:33:25","5","targetincompatiblepracticeswitch","6","targetAright","16","23","0","173","2","Nice","-0.6498502111597901365","-1.5242132562078676283","-1.0870317336838288824"
"120219","15:33:25","5","targetincompatiblepracticeswitch","6","targetAright","17","23","1","3","3","Sociable","-0.6498502111597901365","-1.5242132562078676283","-1.0870317336838288824"
"120219","15:33:25","5","targetincompatiblepracticeswitch","6","targetAright","18","23","0","216","1","Warm","-0.6498502111597901365","-1.5242132562078676283","-1.0870317336838288824"
"120219","15:33:25","5","targetincompatiblepracticeswitch","6","targetAright","19","23","0","196","2","Nice","-0.6498502111597901365","-1.5242132562078676283","-1.0870317336838288824"
"120219","15:33:25","5","targetincompatiblepracticeswitch","6","targetAright","20","23","0","193","3","Sociable","-0.6498502111597901365","-1.5242132562078676283","-1.0870317336838288824"
"120219","15:33:25","5","targetincompatiblepracticeswitch","6","targetAright","21","23","0","207","4","Caring","-0.6498502111597901365","-1.5242132562078676283","-1.0870317336838288824"
"120219","15:33:25","5","targetincompatiblepracticeswitch","6","targetBleft","22","18","1","83","1","Competent","-0.6498502111597901365","-1.5242132562078676283","-1.0870317336838288824"
"120219","15:33:25","5","targetincompatiblepracticeswitch","6","targetAright","23","23","1","109","1","Warm","-0.6498502111597901365","-1.5242132562078676283","-1.0870317336838288824"
"120219","15:33:25","5","targetincompatiblepracticeswitch","6","targetBleft","24","18","1","94","2","Intelligent","-0.6498502111597901365","-1.5242132562078676283","-1.0870317336838288824"
"120219","15:33:25","5","targetincompatiblepracticeswitch","6","targetBleft","25","18","0","208","1","Competent","-0.6498502111597901365","-1.5242132562078676283","-1.0870317336838288824"
"120219","15:33:25","5","targetincompatiblepracticeswitch","6","targetAright","26","23","1","109","3","Sociable","-0.6498502111597901365","-1.5242132562078676283","-1.0870317336838288824"
"120219","15:33:25","5","targetincompatiblepracticeswitch","6","targetAright","27","23","0","199","2","Nice","-0.6498502111597901365","-1.5242132562078676283","-1.0870317336838288824"
"120219","15:33:25","5","targetincompatiblepracticeswitch","6","targetAright","28","23","0","236","4","Caring","-0.6498502111597901365","-1.5242132562078676283","-1.0870317336838288824"
"120219","15:33:25","5","targetincompatiblepracticeswitch","6","targetBleft","29","18","0","247","4","Efficient","-0.6498502111597901365","-1.5242132562078676283","-1.0870317336838288824"
"120219","15:33:25","5","targetincompatiblepracticeswitch","6","targetBleft","30","18","0","211","2","Intelligent","-0.6498502111597901365","-1.5242132562078676283","-1.0870317336838288824"
"120219","15:33:25","5","targetincompatiblepracticeswitch","6","targetAright","31","23","1","31","4","Caring","-0.6498502111597901365","-1.5242132562078676283","-1.0870317336838288824"
"120219","15:33:25","5","targetincompatiblepracticeswitch","6","targetBleft","32","18","1","60","3","Skillful","-0.6498502111597901365","-1.5242132562078676283","-1.0870317336838288824"
"120219","15:33:25","5","targetincompatiblepracticeswitch","6","targetBleft","33","18","0","135","3","Skillful","-0.6498502111597901365","-1.5242132562078676283","-1.0870317336838288824"
"120219","15:33:25","5","targetincompatiblepracticeswitch","6","targetAright","34","23","1","71","1","Warm","-0.6498502111597901365","-1.5242132562078676283","-1.0870317336838288824"
"120219","15:33:25","5","targetincompatiblepracticeswitch","6","targetBleft","35","18","1","49","2","Intelligent","-0.6498502111597901365","-1.5242132562078676283","-1.0870317336838288824"
"120219","15:33:25","5","targetincompatiblepracticeswitch","6","targetBleft","36","18","1","164","4","Efficient","-0.6498502111597901365","-1.5242132562078676283","-1.0870317336838288824"
"120219","15:33:25","5","targetincompatiblepracticeswitch","6","targetAright","37","23","0","156","2","Nice","-0.6498502111597901365","-1.5242132562078676283","-1.0870317336838288824"
"120219","15:33:25","5","targetincompatiblepracticeswitch","6","targetAright","38","23","1","83","3","Sociable","-0.6498502111597901365","-1.5242132562078676283","-1.0870317336838288824"
"120219","15:33:25","5","targetincompatiblepracticeswitch","6","targetBleft","39","18","0","221","1","Competent","-0.6498502111597901365","-1.5242132562078676283","-1.0870317336838288824"
"120219","15:33:25","5","targetincompatiblepracticeswitch","6","targetAright","40","23","1","81","2","Nice","-0.6498502111597901365","-1.5242132562078676283","-1.0870317336838288824"
"120219","15:33:25","5","targetincompatiblepracticeswitch","6","targetBleft","41","18","0","195","2","Intelligent","-0.6498502111597901365","-1.5242132562078676283","-1.0870317336838288824"
"120219","15:33:25","5","incompatibletest1","7","attributeA","2","18","1","144","1","Positive","-0.2490874238527217843","-1.5242132562078676283","-0.886650340030294748"
"120219","15:33:25","5","incompatibletest1","7","targetAright","3","23","1","128","4","Caring","-0.2803640218420298535","-1.5242132562078676283","-0.9022886390249487132"
"120219","15:33:25","5","incompatibletest1","7","attributeB","4","23","1","81","4","Awful","-0.3451744937466802443","-1.5242132562078676283","-0.9346938749772739641"
"120219","15:33:25","5","incompatibletest1","7","targetAright","5","23","1","99","3","Sociable","-0.3677131453481693457","-1.5242132562078676283","-0.9459632007780185425"
"120219","15:33:25","5","incompatibletest1","7","attributeB","6","23","1","85","1","Negative","-0.3935922142959961123","-1.5242132562078676283","-0.9589027352519319258"
"120219","15:33:25","5","incompatibletest1","7","targetBleft","7","18","0","119","4","Efficient","-0.3949522626633883426","-1.5242132562078676283","-0.9595827594356279855"
"120219","15:33:25","5","incompatibletest1","7","attributeB","8","23","1","47","2","Bad","-0.4320897770082482436","-1.5242132562078676283","-0.9781515166080578805"
"120219","15:33:25","5","incompatibletest1","7","targetBleft","9","18","0","131","1","Competent","-0.4268171619154778051","-1.5242132562078676283","-0.9755152090616727723"
"120219","15:33:25","5","incompatibletest1","7","attributeA","10","18","0","107","2","Good","-0.4332221090233351335","-1.5242132562078676283","-0.9787176826156014364"
"120219","15:33:25","5","incompatibletest1","7","targetBleft","11","18","0","491","3","Skillful","-0.2918872691121721097","-1.5242132562078676283","-0.908050262660019869"
"120219","15:33:25","5","incompatibletest1","7","attributeB","12","23","1","69","3","Unpleasant","-0.3207537605150761473","-1.5242132562078676283","-0.92248350836147186"
"120219","15:33:25","5","incompatibletest1","7","targetAright","13","23","0","711","1","Warm","-0.1384528271214786332","-1.5242132562078676283","-0.8313330416646731447"
"120219","15:33:25","5","incompatibletest1","7","attributeA","14","18","0","632","3","Pleasant","-0.0158084690410573991","-1.5242132562078676283","-0.7700108626244624999"
"120219","15:33:25","5","incompatibletest1","7","targetBleft","15","18","1","68","3","Skillful","-0.0539765810609975291","-1.5242132562078676283","-0.7890949186344325961"
"120219","15:33:25","5","incompatibletest1","7","attributeB","16","23","0","103","4","Awful","-0.0796650136563056555","-1.5242132562078676283","-0.8019391349320866835"
"120219","15:33:25","5","incompatibletest1","7","targetBleft","17","18","0","152","1","Competent","-0.0918647555025999402","-1.5242132562078676283","-0.8080390058552338051"
"120219","15:33:25","5","incompatibletest1","7","attributeA","18","18","0","150","1","Positive","-0.1034543455778594301","-1.5242132562078676283","-0.8138338008928635015"
"120219","15:33:25","5","incompatibletest1","7","targetAright","19","23","1","77","3","Sociable","-0.128885772711612584","-1.5242132562078676283","-0.82654951445974012"
"120219","15:33:25","5","incompatibletest1","7","attributeA","20","18","1","55","4","Great","-0.1563897432771652607","-1.5242132562078676283","-0.8403014997425164445"
"120219","15:33:25","5","incompatibletest1","7","targetAright","21","23","1","107","2","Nice","-0.1722822662216721978","-1.5242132562078676283","-0.8482477612147698576"
"120219","15:33:25","5","incompatibletest2","9","attributeB","1","23","1","38","1","Negative","-0.1722822662216721978","-1.2378980261474119562","-0.7050901461845420215"
"120219","15:33:25","5","incompatibletest2","9","targetBleft","2","18","1","162","2","Intelligent","-0.1722822662216721978","-0.2109791835164422091","-0.1916307248690571896"
"120219","15:33:25","5","incompatibletest2","9","attributeA","3","18","0","242","3","Pleasant","-0.1722822662216721978","0.7051997796364868343","0.2664587567074073182"
"120219","15:33:25","5","incompatibletest2","9","targetAright","4","23","1","101","4","Caring","-0.1722822662216721978","0.5058193734203341174","0.1667685535993309598"
"120219","15:33:25","5","incompatibletest2","9","attributeA","5","18","0","158","2","Good","-0.1722822662216721978","0.5910122718165449207","0.2093650027974363614"
"120219","15:33:25","5","incompatibletest2","9","targetAright","6","23","1","77","1","Warm","-0.1722822662216721978","0.3940319997662531382","0.1108748667722904702"
"120219","15:33:25","5","incompatibletest2","9","attributeB","7","23","0","175","2","Bad","-0.1722822662216721978","0.5169606518613947266","0.1723391928198612644"
"120219","15:33:25","5","incompatibletest2","9","targetAright","8","23","0","173","2","Nice","-0.1722822662216721978","0.6029794923172385746","0.2153486130477831884"
"120219","15:33:25","5","incompatibletest2","9","attributeB","9","23","0","84","3","Unpleasant","-0.1722822662216721978","0.4870443609082233394","0.1573810473432755708"
"120219","15:33:25","5","incompatibletest2","9","targetBleft","10","18","0","221","4","Efficient","-0.1722822662216721978","0.6325310571499215273","0.2301243954641246647"
"120219","15:33:25","5","incompatibletest2","9","attributeB","11","23","1","9","1","Negative","-0.1722822662216721978","0.3923885971910857084","0.1100531654847067553"
"120219","15:33:25","5","incompatibletest2","9","targetBleft","12","18","1","70","3","Skillful","-0.1722822662216721978","0.2993107829149844745","0.0635142583466561383"
"120219","15:33:25","5","incompatibletest2","9","attributeB","13","23","1","65","2","Bad","-0.1722822662216721978","0.2120108559733493159","0.019864294875838559"
"120219","15:33:25","5","incompatibletest2","9","targetBleft","14","18","0","123","2","Intelligent","-0.1722822662216721978","0.2164977537741447633","0.0221077437762362827"
"120219","15:33:25","5","incompatibletest2","9","attributeB","15","23","1","99","4","Awful","-0.1722822662216721978","0.1899116403934923147","0.0088146870859100585"
"120219","15:33:25","5","incompatibletest2","9","targetBleft","16","18","1","45","4","Efficient","-0.1722822662216721978","0.0994772699379759123","-0.0364024981418481428"
"120219","15:33:25","5","incompatibletest2","9","attributeA","17","18","0","241","2","Good","-0.1722822662216721978","0.2307533220506058913","0.0292355279144668467"
"120219","15:33:25","5","incompatibletest2","9","targetBleft","18","18","0","180","1","Competent","-0.1722822662216721978","0.287946323039425689","0.0578320284088767456"
"120219","15:33:25","5","incompatibletest2","9","attributeB","19","23","0","202","3","Unpleasant","-0.1722822662216721978","0.3563846604216962533","0.0920511971000120277"
"120219","15:33:25","5","incompatibletest2","9","targetAright","20","23","1","71","1","Warm","-0.1722822662216721978","0.3046693381106229115","0.0661935359444753568"
"120219","15:33:25","5","incompatibletest2","9","attributeA","21","18","0","162","3","Pleasant","-0.1722822662216721978","0.3357640288582128818","0.081740881318270342"
"120219","15:33:25","5","incompatibletest2","9","targetAright","22","23","0","72","4","Caring","-0.1722822662216721978","0.29031343375650287","0.0590155837674153361"
"120219","15:33:25","5","incompatibletest2","9","attributeA","23","18","1","50","4","Great","-0.1722822662216721978","0.2297262879000991076","0.0287220108392134549"
"120219","15:33:25","5","incompatibletest2","9","targetAright","24","23","0","126","3","Sociable","-0.1722822662216721978","0.2340839243401623415","0.0309008290592450718"
"120219","15:33:25","5","incompatibletest2","9","attributeA","25","18","0","126","1","Positive","-0.1722822662216721978","0.2382593673723676087","0.0329885505753477054"
"120219","15:33:25","5","incompatibletest2","9","targetAright","26","23","1","69","2","Nice","-0.1722822662216721978","0.2006372919587643411","0.0141775128685460716"
"120219","15:33:25","5","incompatibletest2","9","attributeA","27","18","0","144","1","Positive","-0.1722822662216721978","0.2176362337765357924","0.0226769837774317973"
"120219","15:33:25","5","incompatibletest2","9","targetAright","28","23","1","96","4","Caring","-0.1722822662216721978","0.2019926557994864702","0.0148551947889071362"
"120219","15:33:25","5","incompatibletest2","9","attributeB","29","23","1","146","1","Negative","-0.1722822662216721978","0.2193026885121416858","0.023510211145234744"
"120219","15:33:25","5","incompatibletest2","9","targetAright","30","23","1","121","1","Warm","-0.1722822662216721978","0.2205036525626926092","0.0241106931705102057"
"120219","15:33:25","5","incompatibletest2","9","attributeB","31","23","1","130","4","Awful","-0.1722822662216721978","0.2271236714119006517","0.0274207025951142269"
"120219","15:33:25","5","incompatibletest2","9","targetBleft","32","18","0","339","2","Intelligent","-0.1722822662216721978","0.3201108221039581925","0.0739142779411429973"
"120219","15:33:25","5","incompatibletest2","9","attributeA","33","18","0","162","4","Great","-0.1722822662216721978","0.3384432540135429712","0.0830804938959353867"
"120219","15:33:25","5","incompatibletest2","9","targetBleft","34","18","1","105","4","Efficient","-0.1722822662216721978","0.3281495024916017966","0.0779336181349647994"
"120219","15:33:25","5","incompatibletest2","9","attributeA","35","18","1","154","2","Good","-0.1722822662216721978","0.3419784531767409153","0.0848480934775343587"
"120219","15:33:25","5","incompatibletest2","9","targetBleft","36","18","1","146","1","Competent","-0.1722822662216721978","0.3517018563677169474","0.0897097950730223748"
"120219","15:33:25","5","incompatibletest2","9","attributeB","37","23","0","186","2","Bad","-0.1722822662216721978","0.3772182586341709665","0.1024679962062493843"
"120219","15:33:25","5","incompatibletest2","9","targetBleft","38","18","0","127","3","Skillful","-0.1722822662216721978","0.3775365420039664133","0.1026271378911471077"
"120219","15:33:25","5","incompatibletest2","9","attributeA","39","18","1","111","3","Pleasant","-0.1722822662216721978","0.3706611291987513823","0.0991894314885395922"
"120219","15:33:25","5","incompatibletest2","9","targetAright","40","23","1","176","3","Sociable","-0.1722822662216721978","0.3906087925433963104","0.1091632631608620563"
"120219","15:34:19","7","targetcompatiblepractice","1","targetBright","2","23","0","2630","4","Efficient","","","0"
"120219","15:34:19","7","targetcompatiblepractice","1","targetBright","3","23","1","675","2","Intelligent","","","0"
"120219","15:34:19","7","targetcompatiblepractice","1","targetAleft","4","18","0","819","3","Sociable","","","0"
"120219","15:34:19","7","targetcompatiblepractice","1","targetBright","5","23","1","982","3","Skillful","","","0"
"120219","15:34:19","7","targetcompatiblepractice","1","targetAleft","6","18","1","741","2","Nice","","","0"
"120219","15:34:19","7","targetcompatiblepractice","1","targetAleft","7","18","1","806","4","Caring","","","0"
"120219","15:34:19","7","targetcompatiblepractice","1","targetBright","8","23","1","1167","1","Competent","","","0"
"120219","15:34:19","7","targetcompatiblepractice","1","targetAleft","9","18","1","611","1","Warm","","","0"
"120219","15:34:19","7","targetcompatiblepractice","1","targetAleft","10","18","1","1335","4","Caring","","","0"
"120219","15:34:19","7","targetcompatiblepractice","1","targetAleft","11","18","1","642","2","Nice","","","0"
"120219","15:34:19","7","targetcompatiblepractice","1","targetAleft","12","18","1","596","1","Warm","","","0"
"120219","15:34:19","7","targetcompatiblepractice","1","targetAleft","13","18","0","1249","3","Sociable","","","0"
"120219","15:34:19","7","targetcompatiblepractice","1","targetBright","14","23","0","1099","1","Competent","","","0"
"120219","15:34:19","7","targetcompatiblepractice","1","targetBright","15","23","0","978","3","Skillful","","","0"
"120219","15:34:19","7","targetcompatiblepractice","1","targetAleft","16","18","0","735","4","Caring","","","0"
"120219","15:34:19","7","targetcompatiblepractice","1","targetBright","17","23","0","788","2","Intelligent","","","0"
"120219","15:34:19","7","targetcompatiblepractice","1","targetBright","18","23","1","1047","4","Efficient","","","0"
"120219","15:34:19","7","targetcompatiblepractice","1","targetBright","19","23","1","652","2","Intelligent","","","0"
"120219","15:34:19","7","targetcompatiblepractice","1","targetBright","20","23","1","900","1","Competent","","","0"
"120219","15:34:19","7","targetcompatiblepractice","1","targetAleft","21","18","1","684","2","Nice","","","0"
"120219","15:34:19","7","attributepractice","2","attributeA","2","18","1","839","3","Pleasant","","","0"
"120219","15:34:19","7","attributepractice","2","attributeA","3","18","1","653","2","Good","","","0"
"120219","15:34:19","7","attributepractice","2","attributeB","4","23","1","760","4","Awful","","","0"
"120219","15:34:19","7","attributepractice","2","attributeB","5","23","1","734","2","Bad","","","0"
"120219","15:34:19","7","attributepractice","2","attributeA","6","18","1","980","4","Great","","","0"
"120219","15:34:19","7","attributepractice","2","attributeA","7","18","0","977","1","Positive","","","0"
"120219","15:34:19","7","attributepractice","2","attributeB","8","23","1","742","1","Negative","","","0"
"120219","15:34:19","7","attributepractice","2","attributeB","9","23","1","558","3","Unpleasant","","","0"
"120219","15:34:19","7","attributepractice","2","attributeA","10","18","0","1197","1","Positive","","","0"
"120219","15:34:19","7","attributepractice","2","attributeA","11","18","1","412","4","Great","","","0"
"120219","15:34:19","7","attributepractice","2","attributeB","12","23","1","1485","1","Negative","","","0"
"120219","15:34:19","7","attributepractice","2","attributeA","13","18","0","926","3","Pleasant","","","0"
"120219","15:34:19","7","attributepractice","2","attributeA","14","18","1","952","2","Good","","","0"
"120219","15:34:19","7","attributepractice","2","attributeB","15","23","1","678","4","Awful","","","0"
"120219","15:34:19","7","attributepractice","2","attributeB","16","23","1","702","3","Unpleasant","","","0"
"120219","15:34:19","7","attributepractice","2","attributeB","17","23","1","672","2","Bad","","","0"
"120219","15:34:19","7","attributepractice","2","attributeA","18","18","1","783","1","Positive","","","0"
"120219","15:34:19","7","attributepractice","2","attributeA","19","18","1","1437","3","Pleasant","","","0"
"120219","15:34:19","7","attributepractice","2","attributeB","20","23","1","824","4","Awful","","","0"
"120219","15:34:19","7","attributepractice","2","attributeB","21","23","1","601","3","Unpleasant","","","0"
"120219","15:34:19","7","compatibletest1","3","attributeA","2","18","0","1219","2","Good","","","0"
"120219","15:34:19","7","compatibletest1","3","targetAleft","3","18","1","1010","3","Sociable","-1.3899841168122712975","","-0.6949920584061356488"
"120219","15:34:19","7","compatibletest1","3","attributeA","4","18","1","521","4","Great","-1.3765587167825823478","","-0.6882793583912911739"
"120219","15:34:19","7","compatibletest1","3","targetAleft","5","18","1","450","1","Warm","-1.3458519001499011924","","-0.6729259500749505962"
"120219","15:34:19","7","compatibletest1","3","attributeB","6","23","1","703","2","Bad","-1.4316312056431930166","","-0.7158156028215965083"
"120219","15:34:19","7","compatibletest1","3","targetBright","7","23","1","756","3","Skillful","-1.5041774249934369845","","-0.7520887124967184922"
"120219","15:34:19","7","compatibletest1","3","attributeB","8","23","1","644","1","Negative","-1.5424110291178136922","","-0.7712055145589068461"
"120219","15:34:19","7","compatibletest1","3","targetBright","9","23","1","678","4","Efficient","-1.5803981229938608433","","-0.7901990614969304216"
"120219","15:34:19","7","compatibletest1","3","attributeB","10","23","1","616","3","Unpleasant","-1.602917201345785303","","-0.8014586006728926515"
"120219","15:34:19","7","compatibletest1","3","targetBright","11","23","1","646","3","Skillful","-1.6275786592878926928","","-0.8137893296439463464"
"120219","15:34:19","7","compatibletest1","3","attributeA","12","18","1","614","2","Good","-1.6452026692054333434","","-0.8226013346027166717"
"120219","15:34:19","7","compatibletest1","3","targetBright","13","23","1","762","2","Intelligent","-1.6712811503872180285","","-0.8356405751936090143"
"120219","15:34:19","7","compatibletest1","3","attributeA","14","18","1","1057","1","Positive","-1.6676657686143752102","","-0.8338328843071876051"
"120219","15:34:19","7","compatibletest1","3","targetAleft","15","18","0","1092","4","Caring","-1.6654350242364630574","","-0.8327175121182315287"
"120219","15:34:19","7","compatibletest1","3","attributeA","16","18","1","1084","4","Great","-1.6695005537893856662","","-0.8347502768946928331"
"120219","15:34:19","7","compatibletest1","3","targetBright","17","23","1","1270","4","Efficient","-1.6510751950398836474","","-0.8255375975199418237"
"120219","15:34:19","7","compatibletest1","3","attributeB","18","23","0","965","4","Awful","-1.6680439242074340811","","-0.8340219621037170405"
"120219","15:34:19","7","compatibletest1","3","targetAleft","19","18","1","776","1","Warm","-1.6811534489139441373","","-0.8405767244569720686"
"120219","15:34:19","7","compatibletest1","3","attributeB","20","23","0","1164","2","Bad","-1.6831023875158241943","","-0.8415511937579120971"
"120219","15:34:19","7","compatibletest1","3","targetAleft","21","18","0","493","3","Sociable","-1.6661872126051073817","","-0.8330936063025536908"
"120219","15:34:19","7","compatibletest2","5","attributeA","1","18","1","359","3","Pleasant","-1.6661872126051073817","","-0.8330936063025536908"
"120219","15:34:19","7","compatibletest2","5","targetAleft","2","18","1","127","2","Nice","-1.6661872126051073817","-1.0228836513411396769","-1.3445354319731235293"
"120219","15:34:19","7","compatibletest2","5","attributeB","3","23","1","85","1","Negative","-1.6661872126051073817","-1.0121482787084470356","-1.3391677456567772087"
"120219","15:34:19","7","compatibletest2","5","targetBright","4","23","1","41","1","Competent","-1.6661872126051073817","-0.9160472365772482917","-1.2911172245911779477"
"120219","15:34:19","7","compatibletest2","5","attributeB","5","23","0","241","1","Negative","-1.6661872126051073817","-1.0638856375597049997","-1.3650364250824060797"
"120219","15:34:19","7","compatibletest2","5","targetAleft","6","18","1","38","1","Warm","-1.6661872126051073817","-0.9825784457755938339","-1.3243828291903505523"
"120219","15:34:19","7","compatibletest2","5","attributeB","7","23","1","115","2","Bad","-1.6661872126051073817","-1.0237765124997915134","-1.3449818625524494475"
"120219","15:34:19","7","compatibletest2","5","targetAleft","8","18","1","108","3","Sociable","-1.6661872126051073817","-1.0548437060783992791","-1.3605154593417534414"
"120219","15:34:19","7","compatibletest2","5","attributeA","9","18","1","11","2","Good","-1.6661872126051073817","-0.9695231156919851268","-1.3178551641485463097"
"120219","15:34:19","7","compatibletest2","5","targetAleft","10","18","1","1","4","Caring","-1.6661872126051073817","-0.8921619150589918945","-1.2791745638320497491"
"120219","15:34:19","7","compatibletest2","5","attributeB","11","23","1","180","4","Awful","-1.6661872126051073817","-0.9550010587921292649","-1.3105941356986183788"
"120219","15:34:19","7","compatibletest2","5","targetBright","12","23","0","241","3","Skillful","-1.6661872126051073817","-1.0095915685950138663","-1.337889390600060624"
"120219","15:34:19","7","compatibletest2","5","attributeB","13","23","0","269","3","Unpleasant","-1.6661872126051073817","-1.0533867452629934736","-1.3597869789340504276"
"120219","15:34:19","7","compatibletest2","5","targetBright","14","23","0","323","1","Competent","-1.6661872126051073817","-1.0792866190572083518","-1.3727369158311577557"
"120219","15:34:19","7","compatibletest2","5","attributeB","15","23","0","214","4","Awful","-1.6661872126051073817","-1.1200914292301191733","-1.3931393209176132775"
"120219","15:34:19","7","compatibletest2","5","targetAleft","16","18","0","546","2","Nice","-1.6661872126051073817","-1.0396512660708567832","-1.3529192393379820825"
"120219","15:34:19","7","compatibletest2","5","attributeA","17","18","1","104","1","Positive","-1.6661872126051073817","-1.0389906311620225043","-1.352588921883564943"
"120219","15:34:19","7","compatibletest2","5","targetAleft","18","18","1","66","4","Caring","-1.6661872126051073817","-1.0229605716472289778","-1.3445738921261680687"
"120219","15:34:19","7","compatibletest2","5","attributeA","19","18","1","133","3","Pleasant","-1.6661872126051073817","-1.0345117462282176213","-1.3503494794166623905"
"120219","15:34:19","7","compatibletest2","5","targetBright","20","23","0","744","4","Efficient","-1.6661872126051073817","-0.9317047630069703601","-1.2989459878060389819"
"120219","15:34:19","7","compatibletest2","5","attributeA","21","18","0","590","4","Great","-1.6661872126051073817","-0.943060615463113594","-1.3046239140341104878"
"120219","15:34:19","7","compatibletest2","5","targetBright","22","23","0","1041","2","Intelligent","-1.6661872126051073817","-0.8640963469081091031","-1.2651417797566082424"
"120219","15:34:19","7","compatibletest2","5","attributeA","23","18","0","245","3","Pleasant","-1.6661872126051073817","-0.8794853600562163587","-1.2728362863306619257"
"120219","15:34:19","7","compatibletest2","5","targetBright","24","23","1","30","2","Intelligent","-1.6661872126051073817","-0.8577903262507026172","-1.261988769427905055"
"120219","15:34:19","7","compatibletest2","5","attributeB","25","23","0","636","3","Unpleasant","-1.6661872126051073817","-0.8836062864642115766","-1.2748967495346594792"
"120219","15:34:19","7","compatibletest2","5","targetBright","26","23","0","252","1","Competent","-1.6661872126051073817","-0.8973788468665095941","-1.2817830297358083769"
"120219","15:34:19","7","compatibletest2","5","attributeA","27","18","1","44","1","Positive","-1.6661872126051073817","-0.8798805653766137436","-1.2730338889908605626"
"120219","15:34:19","7","compatibletest2","5","targetAleft","28","18","1","30","1","Warm","-1.6661872126051073817","-0.8612356842366205578","-1.2637114484208640253"
"120219","15:34:19","7","compatibletest2","5","attributeB","29","23","0","281","1","Negative","-1.6661872126051073817","-0.8775012226178217078","-1.2718442176114646003"
"120219","15:34:19","7","compatibletest2","5","targetBright","30","23","1","142","3","Skillful","-1.6661872126051073817","-0.8779891639528309977","-1.2720881882789691897"
"120219","15:34:19","7","compatibletest2","5","attributeA","31","18","0","259","2","Good","-1.6661872126051073817","-0.8916650164474619888","-1.2789261145262846853"
"120219","15:34:19","7","compatibletest2","5","targetAleft","32","18","1","817","3","Sociable","-1.6661872126051073817","-0.8947002843911883163","-1.2804437484981479045"
"120219","15:34:19","7","compatibletest2","5","attributeB","33","23","1","738","2","Bad","-1.6661872126051073817","-0.9085843612941568725","-1.2873857869496321271"
"120219","15:34:19","7","compatibletest2","5","targetBright","34","23","1","743","4","Efficient","-1.6661872126051073817","-0.9230393632937549109","-1.2946132879494312018"
"120219","15:34:19","7","compatibletest2","5","attributeA","35","18","0","1361","4","Great","-1.6661872126051073817","-0.8745336872170115239","-1.2703604499110594528"
"120219","15:34:19","7","compatibletest2","5","targetBright","36","23","1","779","4","Efficient","-1.6661872126051073817","-0.8931141247124573246","-1.2796506686587822976"
"120219","15:34:19","7","compatibletest2","5","attributeA","37","18","1","851","4","Great","-1.6661872126051073817","-0.9091840253093689261","-1.2876856189572380984"
"120219","15:34:19","7","compatibletest2","5","targetAleft","38","18","1","616","2","Nice","-1.6661872126051073817","-0.9275780507454796098","-1.2968826316752934957"
"120219","15:34:19","7","compatibletest2","5","attributeB","39","23","1","608","2","Bad","-1.6661872126051073817","-0.9451848022464905963","-1.305686007425798989"
"120219","15:34:19","7","compatibletest2","5","targetAleft","40","18","1","620","2","Nice","-1.6661872126051073817","-0.9622205101712713038","-1.3142038613881892317"
"120219","15:34:19","7","targetincompatiblepracticeswitch","6","targetAright","2","23","1","636","4","Caring","-1.6661872126051073817","-0.9622205101712713038","-1.3142038613881892317"
"120219","15:34:19","7","targetincompatiblepracticeswitch","6","targetAright","3","23","1","423","1","Warm","-1.6661872126051073817","-0.9622205101712713038","-1.3142038613881892317"
"120219","15:34:19","7","targetincompatiblepracticeswitch","6","targetAright","4","23","1","468","3","Sociable","-1.6661872126051073817","-0.9622205101712713038","-1.3142038613881892317"
"120219","15:34:19","7","targetincompatiblepracticeswitch","6","targetAright","5","23","1","418","1","Warm","-1.6661872126051073817","-0.9622205101712713038","-1.3142038613881892317"
"120219","15:34:19","7","targetincompatiblepracticeswitch","6","targetAright","6","23","1","423","4","Caring","-1.6661872126051073817","-0.9622205101712713038","-1.3142038613881892317"
"120219","15:34:19","7","targetincompatiblepracticeswitch","6","targetBleft","7","18","0","766","3","Skillful","-1.6661872126051073817","-0.9622205101712713038","-1.3142038613881892317"
"120219","15:34:19","7","targetincompatiblepracticeswitch","6","targetBleft","8","18","1","757","1","Competent","-1.6661872126051073817","-0.9622205101712713038","-1.3142038613881892317"
"120219","15:34:19","7","targetincompatiblepracticeswitch","6","targetAright","9","23","1","835","2","Nice","-1.6661872126051073817","-0.9622205101712713038","-1.3142038613881892317"
"120219","15:34:19","7","targetincompatiblepracticeswitch","6","targetBleft","10","18","0","603","2","Intelligent","-1.6661872126051073817","-0.9622205101712713038","-1.3142038613881892317"
"120219","15:34:19","7","targetincompatiblepracticeswitch","6","targetAright","11","23","1","444","3","Sociable","-1.6661872126051073817","-0.9622205101712713038","-1.3142038613881892317"
"120219","15:34:19","7","targetincompatiblepracticeswitch","6","targetBleft","12","18","1","849","4","Efficient","-1.6661872126051073817","-0.9622205101712713038","-1.3142038613881892317"
"120219","15:34:19","7","targetincompatiblepracticeswitch","6","targetBleft","13","18","0","2213","1","Competent","-1.6661872126051073817","-0.9622205101712713038","-1.3142038613881892317"
"120219","15:34:19","7","targetincompatiblepracticeswitch","6","targetBleft","14","18","1","454","3","Skillful","-1.6661872126051073817","-0.9622205101712713038","-1.3142038613881892317"
"120219","15:34:19","7","targetincompatiblepracticeswitch","6","targetAright","15","23","1","707","2","Nice","-1.6661872126051073817","-0.9622205101712713038","-1.3142038613881892317"
"120219","15:34:19","7","targetincompatiblepracticeswitch","6","targetBleft","16","18","1","746","2","Intelligent","-1.6661872126051073817","-0.9622205101712713038","-1.3142038613881892317"
"120219","15:34:19","7","targetincompatiblepracticeswitch","6","targetBleft","17","18","1","1083","4","Efficient","-1.6661872126051073817","-0.9622205101712713038","-1.3142038613881892317"
"120219","15:34:19","7","targetincompatiblepracticeswitch","6","targetBleft","18","18","1","643","3","Skillful","-1.6661872126051073817","-0.9622205101712713038","-1.3142038613881892317"
"120219","15:34:19","7","targetincompatiblepracticeswitch","6","targetAright","19","23","0","899","1","Warm","-1.6661872126051073817","-0.9622205101712713038","-1.3142038613881892317"
"120219","15:34:19","7","targetincompatiblepracticeswitch","6","targetAright","20","23","1","233","3","Sociable","-1.6661872126051073817","-0.9622205101712713038","-1.3142038613881892317"
"120219","15:34:19","7","targetincompatiblepracticeswitch","6","targetBleft","21","18","0","547","2","Intelligent","-1.6661872126051073817","-0.9622205101712713038","-1.3142038613881892317"
"120219","15:34:19","7","targetincompatiblepracticeswitch","6","targetAright","22","23","0","851","4","Caring","-1.6661872126051073817","-0.9622205101712713038","-1.3142038613881892317"
"120219","15:34:19","7","targetincompatiblepracticeswitch","6","targetBleft","23","18","0","486","1","Competent","-1.6661872126051073817","-0.9622205101712713038","-1.3142038613881892317"
"120219","15:34:19","7","targetincompatiblepracticeswitch","6","targetAright","24","23","0","90","1","Warm","-1.6661872126051073817","-0.9622205101712713038","-1.3142038613881892317"
"120219","15:34:19","7","targetincompatiblepracticeswitch","6","targetBleft","25","18","1","5","4","Efficient","-1.6661872126051073817","-0.9622205101712713038","-1.3142038613881892317"
"120219","15:34:19","7","targetincompatiblepracticeswitch","6","targetAright","26","23","0","287","4","Caring","-1.6661872126051073817","-0.9622205101712713038","-1.3142038613881892317"
"120219","15:34:19","7","targetincompatiblepracticeswitch","6","targetAright","27","23","0","243","2","Nice","-1.6661872126051073817","-0.9622205101712713038","-1.3142038613881892317"
"120219","15:34:19","7","targetincompatiblepracticeswitch","6","targetAright","28","23","1","6","3","Sociable","-1.6661872126051073817","-0.9622205101712713038","-1.3142038613881892317"
"120219","15:34:19","7","targetincompatiblepracticeswitch","6","targetAright","29","23","0","212","3","Sociable","-1.6661872126051073817","-0.9622205101712713038","-1.3142038613881892317"
"120219","15:34:19","7","targetincompatiblepracticeswitch","6","targetBleft","30","18","1","0","1","Competent","-1.6661872126051073817","-0.9622205101712713038","-1.3142038613881892317"
"120219","15:34:19","7","targetincompatiblepracticeswitch","6","targetBleft","31","18","0","232","3","Skillful","-1.6661872126051073817","-0.9622205101712713038","-1.3142038613881892317"
"120219","15:34:19","7","targetincompatiblepracticeswitch","6","targetBleft","32","18","0","219","2","Intelligent","-1.6661872126051073817","-0.9622205101712713038","-1.3142038613881892317"
"120219","15:34:19","7","targetincompatiblepracticeswitch","6","targetBleft","33","18","0","443","3","Skillful","-1.6661872126051073817","-0.9622205101712713038","-1.3142038613881892317"
"120219","15:34:19","7","targetincompatiblepracticeswitch","6","targetBleft","34","18","1","183","4","Efficient","-1.6661872126051073817","-0.9622205101712713038","-1.3142038613881892317"
"120219","15:34:19","7","targetincompatiblepracticeswitch","6","targetAright","35","23","0","316","2","Nice","-1.6661872126051073817","-0.9622205101712713038","-1.3142038613881892317"
"120219","15:34:19","7","targetincompatiblepracticeswitch","6","targetAright","36","23","0","280","1","Warm","-1.6661872126051073817","-0.9622205101712713038","-1.3142038613881892317"
"120219","15:34:19","7","targetincompatiblepracticeswitch","6","targetBleft","37","18","0","937","1","Competent","-1.6661872126051073817","-0.9622205101712713038","-1.3142038613881892317"
"120219","15:34:19","7","targetincompatiblepracticeswitch","6","targetBleft","38","18","1","74","2","Intelligent","-1.6661872126051073817","-0.9622205101712713038","-1.3142038613881892317"
"120219","15:34:19","7","targetincompatiblepracticeswitch","6","targetAright","39","23","0","466","4","Caring","-1.6661872126051073817","-0.9622205101712713038","-1.3142038613881892317"
"120219","15:34:19","7","targetincompatiblepracticeswitch","6","targetAright","40","23","1","209","1","Warm","-1.6661872126051073817","-0.9622205101712713038","-1.3142038613881892317"
"120219","15:34:19","7","targetincompatiblepracticeswitch","6","targetBleft","41","18","0","665","1","Competent","-1.6661872126051073817","-0.9622205101712713038","-1.3142038613881892317"
"120219","15:34:19","7","incompatibletest1","7","attributeA","2","18","1","484","2","Good","-1.117821664944645299","-0.9622205101712713038","-1.0400210875579583014"
"120219","15:34:19","7","incompatibletest1","7","targetBleft","3","18","0","387","2","Intelligent","-1.2344360169471124689","-0.9622205101712713038","-1.0983282635591917753"
"120219","15:34:19","7","incompatibletest1","7","attributeA","4","18","1","172","3","Pleasant","-1.3848527171694473559","-0.9622205101712713038","-1.1735366136703593298"
"120219","15:34:19","7","incompatibletest1","7","targetBleft","5","18","1","256","3","Skillful","-1.4307779531292272868","-0.9622205101712713038","-1.1964992316502494063"
"120219","15:34:19","7","incompatibletest1","7","attributeA","6","18","1","177","1","Positive","-1.4784038970824737724","-0.9622205101712713038","-1.2203122036268725381"
"120219","15:34:19","7","incompatibletest1","7","targetAright","7","23","0","667","3","Sociable","-1.3820912570190602153","-0.9622205101712713038","-1.1721558835951657596"
"120219","15:34:19","7","incompatibletest1","7","attributeA","8","18","0","749","4","Great","-1.2740643787617829119","-0.9622205101712713038","-1.1181424444665271078"
"120219","15:34:19","7","incompatibletest1","7","targetAright","9","23","0","667","4","Caring","-1.2158953185713188283","-0.9622205101712713038","-1.089057914371295066"
"120219","15:34:19","7","incompatibletest1","7","attributeB","10","23","1","109","1","Negative","-1.2771480062341076245","-0.9622205101712713038","-1.1196842582026893531"
"120219","15:34:19","7","incompatibletest1","7","targetAright","11","23","0","231","2","Nice","-1.314741996941079849","-0.9622205101712713038","-1.1384812535561756874"
"120219","15:34:19","7","incompatibletest1","7","attributeB","12","23","0","207","3","Unpleasant","-1.3481321028248345328","-0.9622205101712713038","-1.1551763064980529183"
"120219","15:34:19","7","incompatibletest1","7","targetAright","13","23","0","223","1","Warm","-1.3754007039940212564","-0.9622205101712713038","-1.1688106070826462801"
"120219","15:34:19","7","incompatibletest1","7","attributeA","14","18","0","165","2","Good","-1.4023080797773008754","-0.9622205101712713038","-1.1822642949742860896"
"120219","15:34:19","7","incompatibletest1","7","targetBleft","15","18","0","214","4","Efficient","-1.4235301622640634811","-0.9622205101712713038","-1.1928753362176673924"
"120219","15:34:19","7","incompatibletest1","7","attributeB","16","23","0","796","4","Awful","-1.3540293967011427512","-0.9622205101712713038","-1.1581249534362070275"
"120219","15:34:19","7","incompatibletest1","7","targetBleft","17","18","1","603","2","Intelligent","-1.33220787165111898","-0.9622205101712713038","-1.1472141909111952529"
"120219","15:34:19","7","incompatibletest1","7","attributeB","18","23","1","555","2","Bad","-1.3209888933617637274","-0.9622205101712713038","-1.1416047017665174046"
"120219","15:34:19","7","incompatibletest1","7","targetBleft","19","18","1","498","3","Skillful","-1.319420424328484831","-0.9622205101712713038","-1.1408204672498780674"
"120219","15:34:19","7","incompatibletest1","7","attributeB","20","23","1","589","4","Awful","-1.3061358813227095244","-0.9622205101712713038","-1.1341781957469905251"
"120219","15:34:19","7","incompatibletest1","7","targetAright","21","23","0","1008","3","Sociable","-1.2061683732132162383","-0.9622205101712713038","-1.0841944416922437711"
"120219","15:34:19","7","incompatibletest2","9","attributeB","1","23","1","517","1","Negative","-1.2061683732132162383","0.4494636294081991723","-0.378352371902508533"
"120219","15:34:19","7","incompatibletest2","9","targetAright","2","23","0","1313","4","Caring","-1.2061683732132162383","1.2608320830359027731","0.0273318549113432674"
"120219","15:34:19","7","incompatibletest2","9","attributeB","3","23","1","311","3","Unpleasant","-1.2061683732132162383","0.9086802592329699113","-0.1487440569901231635"
"120219","15:34:19","7","incompatibletest2","9","targetAright","4","23","1","206","2","Nice","-1.2061683732132162383","0.6131644839918365397","-0.2965019446106898493"
"120219","15:34:19","7","incompatibletest2","9","attributeB","5","23","1","176","3","Unpleasant","-1.2061683732132162383","0.3963517421627396065","-0.4049083155252383159"
"120219","15:34:19","7","incompatibletest2","9","targetAright","6","23","1","196","3","Sociable","-1.2061683732132162383","0.2535486739997983019","-0.4763098496067089682"
"120219","15:34:19","7","incompatibletest2","9","attributeB","7","23","1","303","4","Awful","-1.2061683732132162383","0.1937748966699070208","-0.5061967382716545671"
"120219","15:34:19","7","incompatibletest2","9","targetAright","8","23","1","169","4","Caring","-1.2061683732132162383","0.0981900008990088252","-0.5539891861571036857"
"120219","15:34:19","7","incompatibletest2","9","attributeA","9","18","0","686","1","Positive","-1.2061683732132162383","0.1927217988367574131","-0.5067232871882294543"
"120219","15:34:19","7","incompatibletest2","9","targetBleft","10","18","1","37","4","Efficient","-1.2061683732132162383","0.0761861533706946759","-0.5649911099212607812"
"120219","15:34:19","7","incompatibletest2","9","attributeB","11","23","0","748","2","Bad","-1.2061683732132162383","0.1718253693999090559","-0.517171501906653619"
"120219","15:34:19","7","incompatibletest2","9","targetAright","12","23","1","213","2","Nice","-1.2061683732132162383","0.1208543351787683268","-0.5426570190172239627"
"120219","15:34:19","7","incompatibletest2","9","attributeA","13","18","0","941","3","Pleasant","-1.2061683732132162383","0.239099522099286893","-0.4835344255569646865"
"120219","15:34:19","7","incompatibletest2","9","targetAright","14","23","0","847","1","Warm","-1.2061683732132162383","0.3199133598348201657","-0.4431275066891980363"
"120219","15:34:19","7","incompatibletest2","9","attributeB","15","23","1","192","1","Negative","-1.2061683732132162383","0.2669052997563237661","-0.4696315367284462639"
"120219","15:34:19","7","incompatibletest2","9","targetBleft","16","18","0","574","1","Competent","-1.2061683732132162383","0.2901573847642142656","-0.4580054942245009864"
"120219","15:34:19","7","incompatibletest2","9","attributeB","17","23","0","669","2","Bad","-1.2061683732132162383","0.326547334681360546","-0.4398105192659278462"
"120219","15:34:19","7","incompatibletest2","9","targetBleft","18","18","1","181","1","Competent","-1.2061683732132162383","0.2797876725638682172","-0.4631903503246740383"
"120219","15:34:19","7","incompatibletest2","9","attributeB","19","23","1","88","3","Unpleasant","-1.2061683732132162383","0.2221442846571046736","-0.4920120442780557823"
"120219","15:34:19","7","incompatibletest2","9","targetBleft","20","18","0","253","2","Intelligent","-1.2061683732132162383","0.1957054617400829089","-0.5052314557365666925"
"120219","15:34:19","7","incompatibletest2","9","attributeA","21","18","0","226","1","Positive","-1.2061683732132162383","0.1675475151339505808","-0.5193104290396328704"
"120219","15:34:19","7","incompatibletest2","9","targetBleft","22","18","1","231","3","Skillful","-1.2061683732132162383","0.1423895604177420338","-0.5318894063977370745"
"120219","15:34:19","7","incompatibletest2","9","attributeA","23","18","1","21","3","Pleasant","-1.2061683732132162383","0.0905381209293819739","-0.5578151261419170837"
"120219","15:34:19","7","incompatibletest2","9","targetAright","24","23","0","176","4","Caring","-1.2061683732132162383","0.0631022363173587009","-0.5715330684479287271"
"120219","15:34:19","7","incompatibletest2","9","attributeB","25","23","1","71","4","Awful","-1.2061683732132162383","0.0246578040823553848","-0.5907552845654304718"
"120219","15:34:19","7","incompatibletest2","9","targetAright","26","23","1","30","3","Sociable","-1.2061683732132162383","-0.0157136384283958","-0.6109410058208060157"
"120219","15:34:19","7","incompatibletest2","9","attributeA","27","18","0","133","4","Great","-1.2061683732132162383","-0.0416023104240589581","-0.6238853418186376398"
"120219","15:34:19","7","incompatibletest2","9","targetAright","28","23","1","173","2","Nice","-1.2061683732132162383","-0.0615181146985429375","-0.6338432439558795428"
"120219","15:34:19","7","incompatibletest2","9","attributeA","29","18","1","102","2","Good","-1.2061683732132162383","-0.0876547135326173621","-0.6469115433729167863"
"120219","15:34:19","7","incompatibletest2","9","targetAright","30","23","1","62","1","Warm","-1.2061683732132162383","-0.1161690261633194915","-0.661168699688267858"
"120219","15:34:19","7","incompatibletest2","9","attributeA","31","18","0","183","1","Positive","-1.2061683732132162383","-0.1313473378667402713","-0.668757855539978241"
"120219","15:34:19","7","incompatibletest2","9","targetBleft","32","18","1","16","4","Efficient","-1.2061683732132162383","-0.1611721794397569796","-0.6836702763264865812"
"120219","15:34:19","7","incompatibletest2","9","attributeB","33","23","1","34","1","Negative","-1.2061683732132162383","-0.1876546686937884678","-0.6969115209535023947"
"120219","15:34:19","7","incompatibletest2","9","targetBleft","34","18","1","168","1","Competent","-1.2061683732132162383","-0.2012238347761975132","-0.7036961039947068342"
"120219","15:34:19","7","incompatibletest2","9","attributeA","35","18","1","91","2","Good","-1.2061683732132162383","-0.2206402880255729504","-0.7134043306193945666"
"120219","15:34:19","7","incompatibletest2","9","targetBleft","36","18","1","208","4","Efficient","-1.2061683732132162383","-0.2295507319848625327","-0.717859552599039441"
"120219","15:34:19","7","incompatibletest2","9","attributeA","37","18","0","330","3","Pleasant","-1.2061683732132162383","-0.2278970124624805915","-0.7170326928378484288"
"120219","15:34:19","7","incompatibletest2","9","targetBleft","38","18","1","615","2","Intelligent","-1.2061683732132162383","-0.2013420581885862204","-0.703755215700901271"
"120219","15:34:19","7","incompatibletest2","9","attributeA","39","18","0","992","4","Great","-1.2061683732132162383","-0.142166235745528613","-0.6741673044793724534"
"120219","15:34:19","7","incompatibletest2","9","targetBleft","40","18","1","399","3","Skillful","-1.2061683732132162383","-0.1368658104735682446","-0.6715170918433922553"
"120219","15:35:52","9","targetcompatiblepractice","1","targetBright","2","23","1","1078","1","Competent","","","0"
"120219","15:35:52","9","targetcompatiblepractice","1","targetBright","3","23","1","705","2","Intelligent","","","0"
"120219","15:35:52","9","targetcompatiblepractice","1","targetBright","4","23","1","762","3","Skillful","","","0"
"120219","15:35:52","9","targetcompatiblepractice","1","targetAleft","5","18","1","626","2","Nice","","","0"
"120219","15:35:52","9","targetcompatiblepractice","1","targetAleft","6","18","1","542","1","Warm","","","0"
"120219","15:35:52","9","targetcompatiblepractice","1","targetBright","7","23","1","767","4","Efficient","","","0"
"120219","15:35:52","9","targetcompatiblepractice","1","targetAleft","8","18","1","1310","3","Sociable","","","0"
"120219","15:35:52","9","targetcompatiblepractice","1","targetAleft","9","18","1","623","4","Caring","","","0"
"120219","15:35:52","9","targetcompatiblepractice","1","targetBright","10","23","1","779","2","Intelligent","","","0"
"120219","15:35:52","9","targetcompatiblepractice","1","targetBright","11","23","1","730","3","Skillful","","","0"
"120219","15:35:52","9","targetcompatiblepractice","1","targetBright","12","23","1","578","4","Efficient","","","0"
"120219","15:35:52","9","targetcompatiblepractice","1","targetAleft","13","18","1","729","3","Sociable","","","0"
"120219","15:35:52","9","targetcompatiblepractice","1","targetBright","14","23","1","618","1","Competent","","","0"
"120219","15:35:52","9","targetcompatiblepractice","1","targetAleft","15","18","1","791","1","Warm","","","0"
"120219","15:35:52","9","targetcompatiblepractice","1","targetAleft","16","18","1","749","2","Nice","","","0"
"120219","15:35:52","9","targetcompatiblepractice","1","targetBright","17","23","1","588","3","Skillful","","","0"
"120219","15:35:52","9","targetcompatiblepractice","1","targetAleft","18","18","1","858","4","Caring","","","0"
"120219","15:35:52","9","targetcompatiblepractice","1","targetBright","19","23","1","551","4","Efficient","","","0"
"120219","15:35:52","9","targetcompatiblepractice","1","targetAleft","20","18","1","761","3","Sociable","","","0"
"120219","15:35:52","9","targetcompatiblepractice","1","targetAleft","21","18","1","668","4","Caring","","","0"
"120219","15:35:52","9","attributepractice","2","attributeA","2","18","1","896","2","Good","","","0"
"120219","15:35:52","9","attributepractice","2","attributeB","3","23","1","618","1","Negative","","","0"
"120219","15:35:52","9","attributepractice","2","attributeA","4","18","1","719","3","Pleasant","","","0"
"120219","15:35:52","9","attributepractice","2","attributeB","5","23","1","544","2","Bad","","","0"
"120219","15:35:52","9","attributepractice","2","attributeB","6","23","1","575","4","Awful","","","0"
"120219","15:35:52","9","attributepractice","2","attributeB","7","23","1","550","3","Unpleasant","","","0"
"120219","15:35:52","9","attributepractice","2","attributeA","8","18","1","757","4","Great","","","0"
"120219","15:35:52","9","attributepractice","2","attributeB","9","23","1","645","3","Unpleasant","","","0"
"120219","15:35:52","9","attributepractice","2","attributeA","10","18","1","567","1","Positive","","","0"
"120219","15:35:52","9","attributepractice","2","attributeA","11","18","1","446","1","Positive","","","0"
"120219","15:35:52","9","attributepractice","2","attributeA","12","18","1","489","4","Great","","","0"
"120219","15:35:52","9","attributepractice","2","attributeB","13","23","1","499","1","Negative","","","0"
"120219","15:35:52","9","attributepractice","2","attributeA","14","18","1","637","3","Pleasant","","","0"
"120219","15:35:52","9","attributepractice","2","attributeB","15","23","1","898","2","Bad","","","0"
"120219","15:35:52","9","attributepractice","2","attributeB","16","23","1","690","4","Awful","","","0"
"120219","15:35:52","9","attributepractice","2","attributeA","17","18","1","651","2","Good","","","0"
"120219","15:35:52","9","attributepractice","2","attributeB","18","23","0","831","4","Awful","","","0"
"120219","15:35:52","9","attributepractice","2","attributeA","19","18","1","699","4","Great","","","0"
"120219","15:35:52","9","attributepractice","2","attributeB","20","23","1","660","2","Bad","","","0"
"120219","15:35:52","9","attributepractice","2","attributeA","21","18","1","727","2","Good","","","0"
"120219","15:35:52","9","compatibletest1","3","attributeB","2","23","1","950","3","Unpleasant","","","0"
"120219","15:35:52","9","compatibletest1","3","targetBright","3","23","1","749","2","Intelligent","-1.3762150127631340712","","-0.6881075063815670356"
"120219","15:35:52","9","compatibletest1","3","attributeB","4","23","1","652","1","Negative","-1.5567756638924503676","","-0.7783878319462251838"
"120219","15:35:52","9","compatibletest1","3","targetBright","5","23","1","776","1","Competent","-1.6700123200210617025","","-0.8350061600105308512"
"120219","15:35:52","9","compatibletest1","3","attributeB","6","23","1","630","2","Bad","-1.7121286056710214307","","-0.8560643028355107154"
"120219","15:35:52","9","compatibletest1","3","targetAleft","7","18","1","579","1","Warm","-1.7296696641539692774","","-0.8648348320769846387"
"120219","15:35:52","9","compatibletest1","3","attributeA","8","18","1","569","3","Pleasant","-1.743694202082260114","","-0.871847101041130057"
"120219","15:35:52","9","compatibletest1","3","targetBright","9","23","1","1120","1","Competent","-1.6853035051738458616","","-0.8426517525869229308"
"120219","15:35:52","9","compatibletest1","3","attributeA","10","18","1","833","1","Positive","-1.7170128022556725433","","-0.8585064011278362717"
"120219","15:35:52","9","compatibletest1","3","targetAleft","11","18","1","805","2","Nice","-1.7433531001191713283","","-0.8716765500595856642"
"120219","15:35:52","9","compatibletest1","3","attributeA","12","18","1","729","2","Good","-1.7629502433424104613","","-0.8814751216712052306"
"120219","15:35:52","9","compatibletest1","3","targetAleft","13","18","1","706","1","Warm","-1.7782701788520063335","","-0.8891350894260031668"
"120219","15:35:52","9","compatibletest1","3","attributeB","14","23","1","523","3","Unpleasant","-1.7665193900433227014","","-0.8832596950216613507"
"120219","15:35:52","9","compatibletest1","3","targetAleft","15","18","1","607","4","Caring","-1.7716400446489550813","","-0.8858200223244775406"
"120219","15:35:52","9","compatibletest1","3","attributeA","16","18","1","617","4","Great","-1.7780413204045473208","","-0.8890206602022736604"
"120219","15:35:52","9","compatibletest1","3","targetBright","17","23","0","1086","4","Efficient","-1.7568415409561439766","","-0.8784207704780719883"
"120219","15:35:52","9","compatibletest1","3","attributeA","18","18","1","671","3","Pleasant","-1.7661012207262998253","","-0.8830506103631499126"
"120219","15:35:52","9","compatibletest1","3","targetBright","19","23","1","801","3","Skillful","-1.7779415866330909868","","-0.8889707933165454934"
"120219","15:35:52","9","compatibletest1","3","attributeB","20","23","0","926","4","Awful","-1.7832151142379768505","","-0.8916075571189884252"
"120219","15:35:52","9","compatibletest1","3","targetAleft","21","18","1","549","2","Nice","-1.7783018124438154661","","-0.8891509062219077331"
"120219","15:35:52","9","compatibletest2","5","attributeA","1","18","1","799","1","Positive","-1.7783018124438154661","","-0.8891509062219077331"
"120219","15:35:52","9","compatibletest2","5","targetAleft","2","18","1","748","3","Sociable","-1.7783018124438154661","-1.4111495428704192712","-1.5947256776571174797"
"120219","15:35:52","9","compatibletest2","5","attributeA","3","18","1","587","2","Good","-1.7783018124438154661","-1.5827252764682882002","-1.6805135444560517222"
"120219","15:35:52","9","compatibletest2","5","targetBright","4","23","1","809","2","Intelligent","-1.7783018124438154661","-1.6835446868305203871","-1.7309232496371680377"
"120219","15:35:52","9","compatibletest2","5","attributeA","5","18","1","727","1","Positive","-1.7783018124438154661","-1.7481778303763837457","-1.7632398214100994949"
"120219","15:35:52","9","compatibletest2","5","targetAleft","6","18","1","807","3","Sociable","-1.7783018124438154661","-1.7874710393904678085","-1.7828864259171415263"
"120219","15:35:52","9","compatibletest2","5","attributeA","7","18","1","565","4","Great","-1.7783018124438154661","-1.7893823966639887946","-1.7838421045539021303"
"120219","15:35:52","9","compatibletest2","5","targetAleft","8","18","1","468","1","Warm","-1.7783018124438154661","-1.762698886178465818","-1.7705003493111406421"
"120219","15:35:52","9","compatibletest2","5","attributeA","9","18","1","702","3","Pleasant","-1.7783018124438154661","-1.7880859688253503137","-1.7831938906345827789"
"120219","15:35:52","9","compatibletest2","5","targetBright","10","23","1","647","2","Intelligent","-1.7783018124438154661","-1.8061441946825083082","-1.7922230035631618872"
"120219","15:35:52","9","compatibletest2","5","attributeA","11","18","1","803","3","Pleasant","-1.7783018124438154661","-1.8176558856466684677","-1.7979788490452419669"
"120219","15:35:52","9","compatibletest2","5","targetBright","12","23","0","2353","1","Competent","-1.7783018124438154661","-1.2715119713687468295","-1.5249068919062811478"
"120219","15:35:52","9","compatibletest2","5","attributeA","13","18","1","744","1","Positive","-1.7783018124438154661","-1.297390657432467842","-1.5378462349381416541"
"120219","15:35:52","9","compatibletest2","5","targetAleft","14","18","1","734","2","Nice","-1.7783018124438154661","-1.3205544013349834742","-1.5494281068893993591"
"120219","15:35:52","9","compatibletest2","5","attributeB","15","23","1","654","1","Negative","-1.7783018124438154661","-1.3351308073315195646","-1.5567163098876675154"
"120219","15:35:52","9","compatibletest2","5","targetBright","16","23","1","905","4","Efficient","-1.7783018124438154661","-1.3644599800924799293","-1.5713808962681476977"
"120219","15:35:52","9","compatibletest2","5","attributeB","17","23","1","580","1","Negative","-1.7783018124438154661","-1.3695888661297863642","-1.5739453392868010262"
"120219","15:35:52","9","compatibletest2","5","targetAleft","18","18","1","594","4","Caring","-1.7783018124438154661","-1.3765766614774561649","-1.5774392369606358155"
"120219","15:35:52","9","compatibletest2","5","attributeA","19","18","1","656","4","Great","-1.7783018124438154661","-1.3889708868878365422","-1.5836363496658258931"
"120219","15:35:52","9","compatibletest2","5","targetBright","20","23","1","700","3","Skillful","-1.7783018124438154661","-1.4039048275844892011","-1.5911033200141524446"
"120219","15:35:52","9","compatibletest2","5","attributeB","21","23","1","549","2","Bad","-1.7783018124438154661","-1.4065820461335489799","-1.592441929288682223"
"120219","15:35:52","9","compatibletest2","5","targetAleft","22","18","1","580","4","Caring","-1.7783018124438154661","-1.412372608974071797","-1.5953372107089436316"
"120219","15:35:52","9","compatibletest2","5","attributeB","23","23","1","540","3","Unpleasant","-1.7783018124438154661","-1.4149738704735903561","-1.5966378414587030221"
"120219","15:35:52","9","compatibletest2","5","targetBright","24","23","0","979","2","Intelligent","-1.7783018124438154661","-1.4333805744491152634","-1.6058411934464653648"
"120219","15:35:52","9","compatibletest2","5","attributeB","25","23","1","1079","4","Awful","-1.7783018124438154661","-1.4485240985347671572","-1.6134129554892913117"
"120219","15:35:52","9","compatibletest2","5","targetAleft","26","18","1","707","2","Nice","-1.7783018124438154661","-1.4599473650105723177","-1.6191245887271938919"
"120219","15:35:52","9","compatibletest2","5","attributeA","27","18","1","476","2","Good","-1.7783018124438154661","-1.4554072064698742039","-1.616854509456844724"
"120219","15:35:52","9","compatibletest2","5","targetBright","28","23","1","631","1","Competent","-1.7783018124438154661","-1.4627246899289911841","-1.6205132511864033251"
"120219","15:35:52","9","compatibletest2","5","attributeB","29","23","1","667","3","Unpleasant","-1.7783018124438154661","-1.4717012813273477878","-1.625001546885581627"
"120219","15:35:52","9","compatibletest2","5","targetAleft","30","18","1","662","1","Warm","-1.7783018124438154661","-1.4801613259026167313","-1.6292315691732159877"
"120219","15:35:52","9","compatibletest2","5","attributeB","31","23","1","657","4","Awful","-1.7783018124438154661","-1.4881390440954012089","-1.6332204282696083375"
"120219","15:35:52","9","compatibletest2","5","targetBright","32","23","0","995","3","Skillful","-1.7783018124438154661","-1.4996807812852044339","-1.63899129686450995"
"120219","15:35:52","9","compatibletest2","5","attributeB","33","23","1","704","1","Negative","-1.7783018124438154661","-1.5085860603465752749","-1.6434439363951953705"
"120219","15:35:52","9","compatibletest2","5","targetAleft","34","18","1","826","3","Sociable","-1.7783018124438154661","-1.5198216308054000034","-1.6490617216246077348"
"120219","15:35:52","9","compatibletest2","5","attributeB","35","23","1","426","2","Bad","-1.7783018124438154661","-1.5120309359589445553","-1.6451663742013800107"
"120219","15:35:52","9","compatibletest2","5","targetAleft","36","18","1","460","4","Caring","-1.7783018124438154661","-1.5076176781438845875","-1.6429597452938500268"
"120219","15:35:52","9","compatibletest2","5","attributeA","37","18","1","551","2","Good","-1.7783018124438154661","-1.5094884809696496042","-1.6438951467067326462"
"120219","15:35:52","9","compatibletest2","5","targetBright","38","23","1","1342","4","Efficient","-1.7783018124438154661","-1.5011196839057119323","-1.6397107481747636992"
"120219","15:35:52","9","compatibletest2","5","attributeB","39","23","1","541","4","Awful","-1.7783018124438154661","-1.5019698805691135135","-1.6401358465064643788"
"120219","15:35:52","9","compatibletest2","5","targetBright","40","23","1","669","1","Competent","-1.7783018124438154661","-1.5084622356986101543","-1.6433820240712129213"
"120219","15:35:52","9","targetincompatiblepracticeswitch","6","targetBleft","2","18","1","1710","3","Skillful","-1.7783018124438154661","-1.5084622356986101543","-1.6433820240712129213"
"120219","15:35:52","9","targetincompatiblepracticeswitch","6","targetAright","3","23","1","735","1","Warm","-1.7783018124438154661","-1.5084622356986101543","-1.6433820240712129213"
"120219","15:35:52","9","targetincompatiblepracticeswitch","6","targetAright","4","23","0","1191","3","Sociable","-1.7783018124438154661","-1.5084622356986101543","-1.6433820240712129213"
"120219","15:35:52","9","targetincompatiblepracticeswitch","6","targetAright","5","23","1","780","2","Nice","-1.7783018124438154661","-1.5084622356986101543","-1.6433820240712129213"
"120219","15:35:52","9","targetincompatiblepracticeswitch","6","targetBleft","6","18","0","1906","4","Efficient","-1.7783018124438154661","-1.5084622356986101543","-1.6433820240712129213"
"120219","15:35:52","9","targetincompatiblepracticeswitch","6","targetBleft","7","18","1","635","2","Intelligent","-1.7783018124438154661","-1.5084622356986101543","-1.6433820240712129213"
"120219","15:35:52","9","targetincompatiblepracticeswitch","6","targetAright","8","23","1","600","4","Caring","-1.7783018124438154661","-1.5084622356986101543","-1.6433820240712129213"
"120219","15:35:52","9","targetincompatiblepracticeswitch","6","targetBleft","9","18","1","709","2","Intelligent","-1.7783018124438154661","-1.5084622356986101543","-1.6433820240712129213"
"120219","15:35:52","9","targetincompatiblepracticeswitch","6","targetAright","10","23","1","1046","3","Sociable","-1.7783018124438154661","-1.5084622356986101543","-1.6433820240712129213"
"120219","15:35:52","9","targetincompatiblepracticeswitch","6","targetBleft","11","18","1","802","1","Competent","-1.7783018124438154661","-1.5084622356986101543","-1.6433820240712129213"
"120219","15:35:52","9","targetincompatiblepracticeswitch","6","targetAright","12","23","1","599","2","Nice","-1.7783018124438154661","-1.5084622356986101543","-1.6433820240712129213"
"120219","15:35:52","9","targetincompatiblepracticeswitch","6","targetBleft","13","18","1","1188","4","Efficient","-1.7783018124438154661","-1.5084622356986101543","-1.6433820240712129213"
"120219","15:35:52","9","targetincompatiblepracticeswitch","6","targetAright","14","23","1","1098","1","Warm","-1.7783018124438154661","-1.5084622356986101543","-1.6433820240712129213"
"120219","15:35:52","9","targetincompatiblepracticeswitch","6","targetAright","15","23","1","1387","3","Sociable","-1.7783018124438154661","-1.5084622356986101543","-1.6433820240712129213"
"120219","15:35:52","9","targetincompatiblepracticeswitch","6","targetAright","16","23","1","466","2","Nice","-1.7783018124438154661","-1.5084622356986101543","-1.6433820240712129213"
"120219","15:35:52","9","targetincompatiblepracticeswitch","6","targetAright","17","23","1","525","4","Caring","-1.7783018124438154661","-1.5084622356986101543","-1.6433820240712129213"
"120219","15:35:52","9","targetincompatiblepracticeswitch","6","targetAright","18","23","1","478","1","Warm","-1.7783018124438154661","-1.5084622356986101543","-1.6433820240712129213"
"120219","15:35:52","9","targetincompatiblepracticeswitch","6","targetBleft","19","18","0","840","3","Skillful","-1.7783018124438154661","-1.5084622356986101543","-1.6433820240712129213"
"120219","15:35:52","9","targetincompatiblepracticeswitch","6","targetBleft","20","18","1","587","1","Competent","-1.7783018124438154661","-1.5084622356986101543","-1.6433820240712129213"
"120219","15:35:52","9","targetincompatiblepracticeswitch","6","targetBleft","21","18","1","633","3","Skillful","-1.7783018124438154661","-1.5084622356986101543","-1.6433820240712129213"
"120219","15:35:52","9","targetincompatiblepracticeswitch","6","targetBleft","22","18","1","509","2","Intelligent","-1.7783018124438154661","-1.5084622356986101543","-1.6433820240712129213"
"120219","15:35:52","9","targetincompatiblepracticeswitch","6","targetBleft","23","18","1","590","4","Efficient","-1.7783018124438154661","-1.5084622356986101543","-1.6433820240712129213"
"120219","15:35:52","9","targetincompatiblepracticeswitch","6","targetBleft","24","18","1","436","4","Efficient","-1.7783018124438154661","-1.5084622356986101543","-1.6433820240712129213"
"120219","15:35:52","9","targetincompatiblepracticeswitch","6","targetAright","25","23","1","617","2","Nice","-1.7783018124438154661","-1.5084622356986101543","-1.6433820240712129213"
"120219","15:35:52","9","targetincompatiblepracticeswitch","6","targetAright","26","23","1","759","3","Sociable","-1.7783018124438154661","-1.5084622356986101543","-1.6433820240712129213"
"120219","15:35:52","9","targetincompatiblepracticeswitch","6","targetAright","27","23","1","612","1","Warm","-1.7783018124438154661","-1.5084622356986101543","-1.6433820240712129213"
"120219","15:35:52","9","targetincompatiblepracticeswitch","6","targetAright","28","23","1","633","4","Caring","-1.7783018124438154661","-1.5084622356986101543","-1.6433820240712129213"
"120219","15:35:52","9","targetincompatiblepracticeswitch","6","targetAright","29","23","1","480","4","Caring","-1.7783018124438154661","-1.5084622356986101543","-1.6433820240712129213"
"120219","15:35:52","9","targetincompatiblepracticeswitch","6","targetBleft","30","18","1","665","1","Competent","-1.7783018124438154661","-1.5084622356986101543","-1.6433820240712129213"
"120219","15:35:52","9","targetincompatiblepracticeswitch","6","targetBleft","31","18","1","547","2","Intelligent","-1.7783018124438154661","-1.5084622356986101543","-1.6433820240712129213"
"120219","15:35:52","9","targetincompatiblepracticeswitch","6","targetBleft","32","18","1","506","3","Skillful","-1.7783018124438154661","-1.5084622356986101543","-1.6433820240712129213"
"120219","15:35:52","9","targetincompatiblepracticeswitch","6","targetAright","33","23","1","668","2","Nice","-1.7783018124438154661","-1.5084622356986101543","-1.6433820240712129213"
"120219","15:35:52","9","targetincompatiblepracticeswitch","6","targetBleft","34","18","0","735","4","Efficient","-1.7783018124438154661","-1.5084622356986101543","-1.6433820240712129213"
"120219","15:35:52","9","targetincompatiblepracticeswitch","6","targetBleft","35","18","1","1046","3","Skillful","-1.7783018124438154661","-1.5084622356986101543","-1.6433820240712129213"
"120219","15:35:52","9","targetincompatiblepracticeswitch","6","targetBleft","36","18","1","785","1","Competent","-1.7783018124438154661","-1.5084622356986101543","-1.6433820240712129213"
"120219","15:35:52","9","targetincompatiblepracticeswitch","6","targetBleft","37","18","1","513","2","Intelligent","-1.7783018124438154661","-1.5084622356986101543","-1.6433820240712129213"
"120219","15:35:52","9","targetincompatiblepracticeswitch","6","targetAright","38","23","1","528","1","Warm","-1.7783018124438154661","-1.5084622356986101543","-1.6433820240712129213"
"120219","15:35:52","9","targetincompatiblepracticeswitch","6","targetAright","39","23","1","697","3","Sociable","-1.7783018124438154661","-1.5084622356986101543","-1.6433820240712129213"
"120219","15:35:52","9","targetincompatiblepracticeswitch","6","targetAright","40","23","1","387","2","Nice","-1.7783018124438154661","-1.5084622356986101543","-1.6433820240712129213"
"120219","15:35:52","9","targetincompatiblepracticeswitch","6","targetBleft","41","18","0","921","3","Skillful","-1.7783018124438154661","-1.5084622356986101543","-1.6433820240712129213"
"120219","15:35:52","9","incompatibletest1","7","attributeB","2","23","1","2001","1","Negative","1.8893093506806082349","-1.5084622356986101543","0.1904235574909990403"
"120219","15:35:52","9","incompatibletest1","7","targetAright","3","23","1","672","1","Warm","1.4787533283765883496","-1.5084622356986101543","-0.0148544536610109024"
"120219","15:35:52","9","incompatibletest1","7","attributeB","4","23","1","770","3","Unpleasant","1.1762286186544932409","-1.5084622356986101543","-0.1661168085220584567"
"120219","15:35:52","9","incompatibletest1","7","targetBleft","5","18","1","889","2","Intelligent","1.050824927625139571","-1.5084622356986101543","-0.2288186540367352917"
"120219","15:35:52","9","incompatibletest1","7","attributeB","6","23","1","668","2","Bad","0.8358876674198415513","-1.5084622356986101543","-0.3362872841393843015"
"120219","15:35:52","9","incompatibletest1","7","targetBleft","7","18","1","1293","4","Efficient","0.9606630683484503885","-1.5084622356986101543","-0.2738995836750798829"
"120219","15:35:52","9","incompatibletest1","7","attributeA","8","18","1","824","3","Pleasant","0.8868879874251867079","-1.5084622356986101543","-0.3107871241367117232"
"120219","15:35:52","9","incompatibletest1","7","targetBleft","9","18","1","1035","1","Competent","0.9062732595571764138","-1.5084622356986101543","-0.3010944880707168703"
"120219","15:35:52","9","incompatibletest1","7","attributeB","10","23","1","615","1","Negative","0.772380416037337425","-1.5084622356986101543","-0.3680409098306363647"
"120219","15:35:52","9","incompatibletest1","7","targetBleft","11","18","1","660","1","Competent","0.678665457505332137","-1.5084622356986101543","-0.4148983890966390087"
"120219","15:35:52","9","incompatibletest1","7","attributeA","12","18","0","1031","1","Positive","0.7121260492410428355","-1.5084622356986101543","-0.3981680932287836594"
"120219","15:35:52","9","incompatibletest1","7","targetAright","13","23","0","1114","4","Caring","0.7593674332524017467","-1.5084622356986101543","-0.3745474012231042038"
"120219","15:35:52","9","incompatibletest1","7","attributeA","14","18","0","1442","4","Great","0.8427816456444836568","-1.5084622356986101543","-0.3328402950270632488"
"120219","15:35:52","9","incompatibletest1","7","targetAright","15","23","1","3925","3","Sociable","0.765869213042501773","-1.5084622356986101543","-0.3712965113280541907"
"120219","15:35:52","9","incompatibletest1","7","attributeA","16","18","1","1278","2","Good","0.7818971846759373845","-1.5084622356986101543","-0.3632825255113363849"
"120219","15:35:52","9","incompatibletest1","7","targetBleft","17","18","1","648","2","Intelligent","0.7316206848035208266","-1.5084622356986101543","-0.3884207754475446639"
"120219","15:35:52","9","incompatibletest1","7","attributeA","18","18","0","1166","1","Positive","0.7394558049621207108","-1.5084622356986101543","-0.3845032153682447218"
"120219","15:35:52","9","incompatibletest1","7","targetAright","19","23","0","1296","1","Warm","0.757454088369338141","-1.5084622356986101543","-0.3755040736646360067"
"120219","15:35:52","9","incompatibletest1","7","attributeB","20","23","0","1730","4","Awful","0.7991458266385748077","-1.5084622356986101543","-0.3546582045300176733"
"120219","15:35:52","9","incompatibletest1","7","targetAright","21","23","1","2041","2","Nice","0.8458300457913664472","-1.5084622356986101543","-0.3313160949536218536"
"120219","15:35:52","9","incompatibletest2","9","attributeB","1","23","0","3233","3","Unpleasant","0.8458300457913664472","1.9173849424666298269","1.3816074941289981926"
"120219","15:35:52","9","incompatibletest2","9","targetBleft","2","18","1","3172","3","Skillful","0.8458300457913664472","1.9178997818064704717","1.3818649137989185149"
"120219","15:35:52","9","incompatibletest2","9","attributeA","3","18","1","899","4","Great","0.8458300457913664472","1.7738772210530164841","1.3098536334221915212"
"120219","15:35:52","9","incompatibletest2","9","targetBleft","4","18","1","1037","4","Efficient","0.8458300457913664472","1.6427920135284310721","1.2443110296598987041"
"120219","15:35:52","9","incompatibletest2","9","attributeB","5","23","1","784","2","Bad","0.8458300457913664472","1.4837196607550799943","1.1647748532732231652"
"120219","15:35:52","9","incompatibletest2","9","targetAright","6","23","1","631","4","Caring","0.8458300457913664472","1.3125336544768824165","1.0791818501341243763"
"120219","15:35:52","9","incompatibletest2","9","attributeB","7","23","0","1155","4","Awful","0.8458300457913664472","1.2560078583377767281","1.0509189520645716431"
"120219","15:35:52","9","incompatibletest2","9","targetBleft","8","18","0","1169","2","Intelligent","0.8458300457913664472","1.2136713090860500319","1.029750677438708184"
"120219","15:35:52","9","incompatibletest2","9","attributeA","9","18","1","1814","3","Pleasant","0.8458300457913664472","1.2515110651565188871","1.0486705554739426116"
"120219","15:35:52","9","incompatibletest2","9","targetAright","10","23","1","2219","3","Sociable","0.8458300457913664472","1.3067660452325244869","1.0762980455119455225"
"120219","15:35:52","9","incompatibletest2","9","attributeA","11","18","1","877","4","Great","0.8458300457913664472","1.2402722837791790855","1.0430511647852727108"
"120219","15:35:52","9","incompatibletest2","9","targetAright","12","23","1","874","3","Sociable","0.8458300457913664472","1.1812218914665806313","1.0135259686289734837"
"120219","15:35:52","9","incompatibletest2","9","attributeB","13","23","1","1317","2","Bad","0.8458300457913664472","1.1743463858507672271","1.0100882158210668926"
"120219","15:35:52","9","incompatibletest2","9","targetAright","14","23","0","1782","1","Warm","0.8458300457913664472","1.2015000268700068986","1.0236650363306867284"
"120219","15:35:52","9","incompatibletest2","9","attributeB","15","23","1","2923","1","Negative","0.8458300457913664472","1.247712304388006066","1.0467711750896862011"
"120219","15:35:52","9","incompatibletest2","9","targetBleft","16","18","1","1156","4","Efficient","0.8458300457913664472","1.2257343796010948811","1.0357822126962306086"
"120219","15:35:52","9","incompatibletest2","9","attributeA","17","18","1","933","3","Pleasant","0.8458300457913664472","1.1884290892185891408","1.0171295675049778495"
"120219","15:35:52","9","incompatibletest2","9","targetAright","18","23","1","1827","4","Caring","0.8458300457913664472","1.2090715071932733871","1.0274507764923199726"
"120219","15:35:52","9","incompatibletest2","9","attributeB","19","23","0","2304","3","Unpleasant","0.8458300457913664472","1.2396282704390289009","1.0427291581151976185"
"120219","15:35:52","9","incompatibletest2","9","targetAright","20","23","1","713","2","Nice","0.8458300457913664472","1.1895948907973723507","1.0177124682943694545"
"120219","15:35:52","9","incompatibletest2","9","attributeB","21","23","0","1178","2","Bad","0.8458300457913664472","1.1766345546418806034","1.0112323002166234698"
"120219","15:35:52","9","incompatibletest2","9","targetBleft","22","18","0","1623","1","Competent","0.8458300457913664472","1.1871656984243961208","1.0164978721078812285"
"120219","15:35:52","9","incompatibletest2","9","attributeA","23","18","1","955","2","Good","0.8458300457913664472","1.1620021885787352733","1.0039161171850508047"
"120219","15:35:52","9","incompatibletest2","9","targetBleft","24","18","1","938","3","Skillful","0.8458300457913664472","1.1376006936855711515","0.9917153697384688549"
"120219","15:35:52","9","incompatibletest2","9","attributeA","25","18","0","1211","1","Positive","0.8458300457913664472","1.13099280677652958","0.9884114262839480691"
"120219","15:35:52","9","incompatibletest2","9","targetAright","26","23","1","719","1","Warm","0.8458300457913664472","1.0947846711466833192","0.9703073584690249387"
"120219","15:35:52","9","incompatibletest2","9","attributeA","27","18","1","895","1","Positive","0.8458300457913664472","1.0725041753787569743","0.9591671105850616552"
"120219","15:35:52","9","incompatibletest2","9","targetBleft","28","18","1","1546","3","Skillful","0.8458300457913664472","1.0829649874478273208","0.9643975166195968285"
"120219","15:35:52","9","incompatibletest2","9","attributeB","29","23","1","1097","3","Unpleasant","0.8458300457913664472","1.0738835782010991426","0.9598568119962327394"
"120219","15:35:52","9","incompatibletest2","9","targetBleft","30","18","1","1091","4","Efficient","0.8458300457913664472","1.0652261757166430201","0.9555281107540047891"
"120219","15:35:52","9","incompatibletest2","9","attributeB","31","23","1","836","1","Negative","0.8458300457913664472","1.043363740607668344","0.9445968931995174511"
"120219","15:35:52","9","incompatibletest2","9","targetBleft","32","18","1","1096","1","Competent","0.8458300457913664472","1.0365394189508640999","0.941184732371115329"
"120219","15:35:52","9","incompatibletest2","9","attributeA","33","18","1","1346","4","Great","0.8458300457913664472","1.0407775734673003765","0.9433038096293333563"
"120219","15:35:52","9","incompatibletest2","9","targetAright","34","23","1","1097","2","Nice","0.8458300457913664472","1.0347847362670032911","0.9403073910291848136"
"120219","15:35:52","9","incompatibletest2","9","attributeB","35","23","1","555","4","Awful","0.8458300457913664472","0.9994472073476619034","0.9226386265695141198"
"120219","15:35:52","9","incompatibletest2","9","targetBleft","36","18","1","907","2","Intelligent","0.8458300457913664472","0.9859307986495331466","0.9158804222204497414"
"120219","15:35:52","9","incompatibletest2","9","attributeA","37","18","1","692","2","Good","0.8458300457913664472","0.9617070230968531863","0.9037685344441097612"
"120219","15:35:52","9","incompatibletest2","9","targetAright","38","23","1","1734","3","Sociable","0.8458300457913664472","0.9776196699909637244","0.9117248578911650858"
"120219","15:35:52","9","incompatibletest2","9","attributeA","39","18","1","1213","3","Pleasant","0.8458300457913664472","0.9785644953781242883","0.9121972705847454232"
"120219","15:35:52","9","incompatibletest2","9","targetAright","40","23","1","1331","4","Caring","0.8458300457913664472","0.9836037013526545136","0.9147168735720104804"
"120219","15:39:02","15","targetcompatiblepractice","1","targetBright","2","23","1","782","3","Skillful","","","0"
"120219","15:39:02","15","targetcompatiblepractice","1","targetBright","3","23","1","756","2","Intelligent","","","0"
"120219","15:39:02","15","targetcompatiblepractice","1","targetAleft","4","18","1","835","3","Sociable","","","0"
"120219","15:39:02","15","targetcompatiblepractice","1","targetAleft","5","18","1","580","4","Caring","","","0"
"120219","15:39:02","15","targetcompatiblepractice","1","targetAleft","6","18","1","609","2","Nice","","","0"
"120219","15:39:02","15","targetcompatiblepractice","1","targetAleft","7","18","1","511","1","Warm","","","0"
"120219","15:39:02","15","targetcompatiblepractice","1","targetBright","8","23","1","570","1","Competent","","","0"
"120219","15:39:02","15","targetcompatiblepractice","1","targetAleft","9","18","1","533","1","Warm","","","0"
"120219","15:39:02","15","targetcompatiblepractice","1","targetAleft","10","18","1","799","3","Sociable","","","0"
"120219","15:39:02","15","targetcompatiblepractice","1","targetBright","11","23","1","641","4","Efficient","","","0"
"120219","15:39:02","15","targetcompatiblepractice","1","targetAleft","12","18","1","605","4","Caring","","","0"
"120219","15:39:02","15","targetcompatiblepractice","1","targetBright","13","23","1","718","2","Intelligent","","","0"
"120219","15:39:02","15","targetcompatiblepractice","1","targetAleft","14","18","1","758","2","Nice","","","0"
"120219","15:39:02","15","targetcompatiblepractice","1","targetBright","15","23","1","610","4","Efficient","","","0"
"120219","15:39:02","15","targetcompatiblepractice","1","targetBright","16","23","1","1161","1","Competent","","","0"
"120219","15:39:02","15","targetcompatiblepractice","1","targetBright","17","23","1","561","3","Skillful","","","0"
"120219","15:39:02","15","targetcompatiblepractice","1","targetAleft","18","18","1","573","1","Warm","","","0"
"120219","15:39:02","15","targetcompatiblepractice","1","targetBright","19","23","1","674","2","Intelligent","","","0"
"120219","15:39:02","15","targetcompatiblepractice","1","targetBright","20","23","1","872","3","Skillful","","","0"
"120219","15:39:02","15","targetcompatiblepractice","1","targetAleft","21","18","1","591","4","Caring","","","0"
"120219","15:39:02","15","attributepractice","2","attributeA","2","18","1","619","1","Positive","","","0"
"120219","15:39:02","15","attributepractice","2","attributeB","3","23","1","534","4","Awful","","","0"
"120219","15:39:02","15","attributepractice","2","attributeB","4","23","1","760","2","Bad","","","0"
"120219","15:39:02","15","attributepractice","2","attributeB","5","23","1","588","3","Unpleasant","","","0"
"120219","15:39:02","15","attributepractice","2","attributeA","6","18","1","589","4","Great","","","0"
"120219","15:39:02","15","attributepractice","2","attributeA","7","18","1","490","2","Good","","","0"
"120219","15:39:02","15","attributepractice","2","attributeB","8","23","1","540","1","Negative","","","0"
"120219","15:39:02","15","attributepractice","2","attributeB","9","23","1","767","3","Unpleasant","","","0"
"120219","15:39:02","15","attributepractice","2","attributeA","10","18","1","616","3","Pleasant","","","0"
"120219","15:39:02","15","attributepractice","2","attributeA","11","18","1","712","1","Positive","","","0"
"120219","15:39:02","15","attributepractice","2","attributeA","12","18","1","642","2","Good","","","0"
"120219","15:39:02","15","attributepractice","2","attributeA","13","18","1","526","3","Pleasant","","","0"
"120219","15:39:02","15","attributepractice","2","attributeA","14","18","1","520","4","Great","","","0"
"120219","15:39:02","15","attributepractice","2","attributeB","15","23","1","511","4","Awful","","","0"
"120219","15:39:02","15","attributepractice","2","attributeB","16","23","1","463","2","Bad","","","0"
"120219","15:39:02","15","attributepractice","2","attributeA","17","18","1","632","1","Positive","","","0"
"120219","15:39:02","15","attributepractice","2","attributeA","18","18","1","593","2","Good","","","0"
"120219","15:39:02","15","attributepractice","2","attributeB","19","23","1","505","1","Negative","","","0"
"120219","15:39:02","15","attributepractice","2","attributeB","20","23","1","460","1","Negative","","","0"
"120219","15:39:02","15","attributepractice","2","attributeB","21","23","1","522","3","Unpleasant","","","0"
"120219","15:39:02","15","compatibletest1","3","attributeB","2","23","1","752","4","Awful","","","0"
"120219","15:39:02","15","compatibletest1","3","targetAleft","3","18","1","957","3","Sociable","-1.3751925216559370835","","-0.6875962608279685417"
"120219","15:39:02","15","compatibletest1","3","attributeA","4","18","1","1152","4","Great","-1.5448915519178001432","","-0.7724457759589000716"
"120219","15:39:02","15","compatibletest1","3","targetBright","5","23","1","569","4","Efficient","-1.5431889321789162839","","-0.7715944660894581419"
